time,seconds_elapsed,z,y,x
1728651076594478000,0.07847802734375,0.11900000274181366,-0.14000000059604645,-0.1420000046491623
1728651076604082200,0.088082275390625,0.11900000274181366,-0.14000000059604645,-0.1420000046491623
1728651076613689600,0.097689697265625,0.38499999046325684,-0.05299999937415123,0.09700000286102295
1728651076623294700,0.107294677734375,0.25099998712539673,-0.07900000363588333,0.032999999821186066
1728651076632900000,0.116900146484375,0.25200000405311584,-0.0729999989271164,0.03400000184774399
1728651076642505200,0.126505126953125,0.3799999952316284,-0.09099999815225601,0.07500000298023224
1728651076652110300,0.1361103515625,0.25099998712539673,-0.07500000298023224,0.03200000151991844
1728651076661715500,0.145715576171875,-0.21199999749660492,0.017000000923871994,0.008999999612569809
1728651076671320800,0.15532080078125,-0.2529999911785126,0.12800000607967377,0.09200000017881393
1728651076680925400,0.164925537109375,-0.14399999380111694,0.019999999552965164,0.03700000047683716
1728651076690530000,0.174530029296875,-0.020999999716877937,-0.07199999690055847,0.04899999871850014
1728651076700135200,0.18413525390625,-0.3199999928474426,0.06599999964237213,0.2540000081062317
1728651076709740300,0.193740234375,-0.18400000035762787,0.05400000140070915,0.050999999046325684
1728651076719345700,0.203345703125,0.1420000046491623,-0.014000000432133675,0.023000000044703484
1728651076728950800,0.21295068359375,0.34599998593330383,-0.23399999737739563,-0.1120000034570694
1728651076738556000,0.222555908203125,0.11500000208616257,-0.24799999594688416,-0.12200000137090683
1728651076748161300,0.232161376953125,-0.3330000042915344,-0.06700000166893005,0.0729999989271164
1728651076757767700,0.241767578125,-0.4819999933242798,0.08900000154972076,0.1720000058412552
1728651076767372800,0.251372802734375,0.008999999612569809,-0.052000001072883606,0.09099999815225601
1728651076776978000,0.26097802734375,0.2680000066757202,-0.18199999630451202,0.023000000044703484
1728651076786583000,0.2705830078125,0.09200000017881393,-0.13699999451637268,0.14800000190734863
1728651076796188400,0.2801884765625,-0.08299999684095383,-0.10700000077486038,0.22100000083446503
1728651076805793300,0.289793212890625,0.07900000363588333,-0.1599999964237213,0.1589999943971634
1728651076815398700,0.299398681640625,0.296999990940094,-0.07400000095367432,0.00800000037997961
1728651076825003800,0.309003662109375,0.09399999678134918,-0.08500000089406967,0.04500000178813934
1728651076834609200,0.318609130859375,-0.2720000147819519,0.039000000804662704,0.12999999523162842
1728651076844214300,0.32821435546875,-0.39399999380111694,0.15199999511241913,0.16699999570846558
1728651076853819400,0.3378193359375,-0.0689999982714653,0.18400000035762787,0.16200000047683716
1728651076863424500,0.347424560546875,0.14900000393390656,0.20000000298023224,0.19300000369548798
1728651076873029600,0.357029541015625,0.2680000066757202,0.20999999344348907,0.07000000029802322
1728651076882635000,0.366635009765625,0.4320000112056732,0.14100000262260437,0.061000000685453415
1728651076892240100,0.376240234375,0.3889999985694885,-0.027000000700354576,0.2630000114440918
1728651076901845200,0.38584521484375,0.32100000977516174,-0.12700000405311584,0.20100000500679016
1728651076911450600,0.39545068359375,0.020999999716877937,-0.10899999737739563,0.23100000619888306
1728651076921055700,0.4050556640625,-0.45399999618530273,0.024000000208616257,0.33399999141693115
1728651076930661000,0.4146611328125,-0.7570000290870667,0.25999999046325684,0.6389999985694885
1728651076940266000,0.424265869140625,-0.22599999606609344,0.05400000140070915,0.4699999988079071
1728651076949871400,0.433871337890625,0.9139999747276306,0.04600000008940697,0.007000000216066837
1728651076959476500,0.4434765625,1.1970000267028809,-0.04699999839067459,0.13600000739097595
1728651076969081600,0.45308154296875,1.0570000410079956,-0.28299999237060547,0.8050000071525574
1728651076978686700,0.462686767578125,0.22300000488758087,-0.3050000071525574,0.7979999780654907
1728651076988291800,0.472291748046875,-0.4970000088214874,-0.23999999463558197,0.8169999718666077
1728651076997897200,0.481897216796875,-1.3550000190734863,-0.04100000113248825,0.24400000274181366
1728651077007502300,0.49150244140625,-0.4819999933242798,-0.22499999403953552,0.5210000276565552
1728651077017107500,0.501107421875,0.18400000035762787,-0.24500000476837158,0.2639999985694885
1728651077026712600,0.510712646484375,0.7289999723434448,-0.33500000834465027,0.3869999945163727
1728651077036318000,0.52031787109375,0.10100000351667404,-0.44999998807907104,0.7940000295639038
1728651077045923000,0.529923095703125,-0.9150000214576721,-0.2669999897480011,0.5659999847412109
1728651077055528200,0.539528076171875,-0.8880000114440918,-0.07400000095367432,0.16500000655651093
1728651077065133300,0.54913330078125,-0.2750000059604645,0.07400000095367432,-0.21899999678134918
1728651077074738400,0.558738525390625,0.609000027179718,-0.09200000017881393,-0.2540000081062317
1728651077084343800,0.56834375,0.7730000019073486,-0.26600000262260437,-0.25699999928474426
1728651077093949000,0.577948974609375,-0.0430000014603138,-0.29499998688697815,-0.16500000655651093
1728651077103554000,0.587553955078125,-0.7889999747276306,-0.10899999737739563,0
1728651077113159400,0.597159423828125,-0.9369999766349792,0.21199999749660492,0.3799999952316284
1728651077122764300,0.606764404296875,-0.3109999895095825,0.19599999487400055,0.2329999953508377
1728651077132369700,0.61636962890625,0.5329999923706055,0.039000000804662704,0.15299999713897705
1728651077141974800,0.625974853515625,0.3149999976158142,-0.03700000047683716,0.14300000667572021
1728651077151580200,0.635580078125,0.003000000026077032,-0.04399999976158142,0.06400000303983688
1728651077161185300,0.645185302734375,0.004000000189989805,-0.009999999776482582,0.06300000101327896
1728651077170790100,0.6547900390625,0.19499999284744263,-0.01899999938905239,0.027000000700354576
1728651077180395500,0.6643955078125,0.4399999976158142,-0.008999999612569809,-0.028999999165534973
1728651077190000600,0.674000732421875,0.3449999988079071,-0.008999999612569809,-0.04699999839067459
1728651077199606000,0.68360595703125,-0.10499999672174454,0.06800000369548798,0.0430000014603138
1728651077209211100,0.693211181640625,-0.2680000066757202,0.09700000286102295,0.0560000017285347
1728651077218816300,0.702816162109375,0.057999998331069946,-0.023000000044703484,0.05000000074505806
1728651077228421600,0.712421630859375,0.16699999570846558,-0.1860000044107437,0.1679999977350235
1728651077238026500,0.722026611328125,-0.2370000034570694,-0.19300000369548798,0.22699999809265137
1728651077247632000,0.7316318359375,-0.38600000739097595,-0.09200000017881393,0.08500000089406967
1728651077257237000,0.741237060546875,-0.10000000149011612,0.08399999886751175,-0.09200000017881393
1728651077266842000,0.750842041015625,0.47200000286102295,0.004999999888241291,-0.04699999839067459
1728651077276447500,0.760447509765625,0.3779999911785126,-0.16200000047683716,0.032999999821186066
1728651077286052400,0.77005224609375,-0.19300000369548798,-0.10400000214576721,0.14499999582767487
1728651077295657700,0.77965771484375,-0.47600001096725464,0.004000000189989805,0.15199999511241913
1728651077305262800,0.789262939453125,-0.12099999934434891,0.05000000074505806,0.007000000216066837
1728651077314868000,0.798867919921875,0.3140000104904175,-0.041999999433755875,-0.004000000189989805
1728651077324473300,0.808473388671875,0.36899998784065247,-0.12300000339746475,-0.02800000086426735
1728651077334078500,0.818078369140625,0.028999999165534973,-0.07599999755620956,0.003000000026077032
1728651077343683600,0.82768359375,-0.06499999761581421,-0.020999999716877937,0.06599999964237213
1728651077353288700,0.837288818359375,0.19300000369548798,-0.04800000041723251,0.006000000052154064
1728651077362894000,0.84689404296875,0.27399998903274536,-0.13099999725818634,0.0949999988079071
1728651077372499200,0.856499267578125,0.017000000923871994,-0.10899999737739563,0.1080000028014183
1728651077382104300,0.866104248046875,-0.30799999833106995,-0.03799999877810478,0.1679999977350235
1728651077391709700,0.875709716796875,-0.3880000114440918,0,0.10899999737739563
1728651077401314600,0.885314453125,-0.3050000071525574,0.05999999865889549,0.11100000143051147
1728651077410919700,0.894919677734375,-0.07199999690055847,0.03700000047683716,0.06499999761581421
1728651077420525000,0.904525146484375,0.023000000044703484,0,-0.024000000208616257
1728651077430130200,0.914130126953125,0.10700000077486038,-0.07100000232458115,0.012000000104308128
1728651077439735000,0.923735107421875,0.05400000140070915,-0.07900000363588333,0.11900000274181366
1728651077449340400,0.93334033203125,0.003000000026077032,-0.07699999958276749,0.2029999941587448
1728651077458945500,0.942945556640625,-0.04899999871850014,-0.04100000113248825,0.296999990940094
1728651077468550700,0.952550537109375,0.18400000035762787,-0.04699999839067459,0.22599999606609344
1728651077478156000,0.962156005859375,0.47099998593330383,-0.07100000232458115,0.12300000339746475
1728651077487761200,0.97176123046875,0.40299999713897705,-0.07000000029802322,0.17399999499320984
1728651077497366300,0.9813662109375,0.10400000214576721,-0.08399999886751175,0.26600000262260437
1728651077506971400,0.990971435546875,0.1860000044107437,-0.0689999982714653,0.28299999237060547
1728651077516576500,1.000576416015625,-0.12600000202655792,-0.06800000369548798,0.1720000058412552
1728651077526182000,1.010181884765625,-0.23199999332427979,-0.13600000739097595,0.13300000131130219
1728651077535787000,1.019787109375,0.012000000104308128,-0.24500000476837158,0.1770000010728836
1728651077545392000,1.02939208984375,-0.12099999934434891,-0.03500000014901161,0.2939999997615814
1728651077554997200,1.038997314453125,-0.23000000417232513,-0.020999999716877937,0.5339999794960022
1728651077564602400,1.048602294921875,0.1809999942779541,-0.289000004529953,0.1589999943971634
1728651077574207700,1.058207763671875,0.03099999949336052,-0.03099999949336052,0.30799999833106995
1728651077583812600,1.0678125,-0.07100000232458115,-0.2939999997615814,0.38600000739097595
1728651077593418000,1.07741796875,-0.029999999329447746,-0.3059999942779541,0.35600000619888306
1728651077603023000,1.087023193359375,0.0560000017285347,-0.2199999988079071,0.39100000262260437
1728651077612628200,1.096628173828125,0.26100000739097595,-0.31200000643730164,0.5239999890327454
1728651077622233600,1.106233642578125,0.2939999997615814,-0.34299999475479126,0.41100001335144043
1728651077631838700,1.115838623046875,0.09000000357627869,-0.2849999964237213,0.42399999499320984
1728651077641443800,1.12544384765625,0,-0.17299999296665192,0.3050000071525574
1728651077651049000,1.135049072265625,0.04100000113248825,-0.11599999666213989,0.34700000286102295
1728651077660654000,1.144654052734375,0.2619999945163727,-0.20100000500679016,0.2879999876022339
1728651077670259500,1.154259521484375,0.07000000029802322,-0.2980000078678131,0.15800000727176666
1728651077679864600,1.163864501953125,-0.04899999871850014,-0.11400000005960464,0.3409999907016754
1728651077689469700,1.1734697265625,0.14000000059604645,-0.2280000001192093,0.4259999990463257
1728651077699074800,1.18307470703125,0.19900000095367432,-0.35899999737739563,0.38499999046325684
1728651077708680000,1.192679931640625,0.00800000037997961,-0.3199999928474426,0.4000000059604645
1728651077718285300,1.202285400390625,-0.014000000432133675,-0.20900000631809235,0.3089999854564667
1728651077727890200,1.21189013671875,0.05400000140070915,-0.16599999368190765,0.3199999928474426
1728651077737495600,1.22149560546875,0.04500000178813934,-0.15299999713897705,0.23100000619888306
1728651077747100700,1.2311005859375,0.0860000029206276,-0.13600000739097595,0.296999990940094
1728651077756705800,1.240705810546875,0.035999998450279236,-0.13699999451637268,0.2619999945163727
1728651077766311000,1.250310791015625,-0.14000000059604645,-0.1340000033378601,0.4090000092983246
1728651077775916000,1.259916015625,-0.012000000104308128,-0.14800000190734863,0.4779999852180481
1728651077785521200,1.269521240234375,0.1379999965429306,-0.2549999952316284,0.4620000123977661
1728651077795126500,1.27912646484375,0.2529999911785126,-0.27900001406669617,0.492000013589859
1728651077804731600,1.288731689453125,0.1720000058412552,-0.29100000858306885,0.4749999940395355
1728651077814336800,1.298336669921875,0.19099999964237213,-0.24699999392032623,0.37700000405311584
1728651077823942000,1.30794189453125,0.21899999678134918,-0.2029999941587448,0.3050000071525574
1728651077833547000,1.317547119140625,0.04699999839067459,-0.17399999499320984,0.2540000081062317
1728651077843152400,1.32715234375,0.00800000037997961,-0.10100000351667404,0.20800000429153442
1728651077852757500,1.336757568359375,0.06499999761581421,-0.06499999761581421,0.15199999511241913
1728651077862362600,1.346362548828125,0.1080000028014183,-0.08799999952316284,0.1340000033378601
1728651077871967700,1.3559677734375,0.11100000143051147,-0.15800000727176666,0.04600000008940697
1728651077881572900,1.36557275390625,0.24799999594688416,-0.1289999932050705,0.029999999329447746
1728651077891178000,1.375177978515625,0.07400000095367432,-0.11900000274181366,0.11299999803304672
1728651077900783400,1.384783447265625,-0.007000000216066837,-0.13099999725818634,0.164000004529953
1728651077910388500,1.394388427734375,0.09099999815225601,-0.13600000739097595,0.1770000010728836
1728651077919993600,1.40399365234375,0.07800000160932541,-0.13500000536441803,0.18799999356269836
1728651077929598700,1.4135986328125,0.1080000028014183,-0.14000000059604645,0.1599999964237213
1728651077939204000,1.4232041015625,0.20399999618530273,-0.15199999511241913,0.11500000208616257
1728651077948809200,1.432809326171875,0.16500000655651093,-0.11800000071525574,0.06700000166893005
1728651077958414300,1.442414306640625,-0.009999999776482582,-0.061000000685453415,0.04899999871850014
1728651077968019500,1.45201953125,-0.07400000095367432,-0.06400000303983688,0.07800000160932541
1728651077977624600,1.46162451171875,0.04899999871850014,-0.0729999989271164,0.07100000232458115
1728651077987229700,1.471229736328125,0.09200000017881393,-0.05400000140070915,0.05900000035762787
1728651077996835000,1.4808349609375,0.27000001072883606,-0.09300000220537186,0.026000000536441803
1728651078006440000,1.49043994140625,0.2840000092983246,-0.06499999761581421,0.03500000014901161
1728651078016045300,1.50004541015625,0.23000000417232513,-0.07900000363588333,0.05900000035762787
1728651078025650400,1.509650390625,0.10899999737739563,-0.07500000298023224,0.09000000357627869
1728651078035255600,1.519255615234375,0.02800000086426735,-0.04600000008940697,0.0729999989271164
1728651078044861000,1.52886083984375,0.01600000075995922,-0.02800000086426735,0.06400000303983688
1728651078054466000,1.538466064453125,0.1809999942779541,0.013000000268220901,0.004999999888241291
1728651078064071000,1.54807080078125,0.26100000739097595,0.03400000184774399,-0.04699999839067459
1728651078073676300,1.55767626953125,0.26100000739097595,0.01899999938905239,-0.06400000303983688
1728651078083281400,1.567281494140625,0.09700000286102295,0.01600000075995922,-0.04899999871850014
1728651078092886800,1.57688671875,-0.07900000363588333,0.029999999329447746,-0.02500000037252903
1728651078102492000,1.586491943359375,-0.024000000208616257,0.004999999888241291,-0.0020000000949949026
1728651078112097000,1.596096923828125,0.03099999949336052,0.020999999716877937,0.004999999888241291
1728651078121702100,1.6057021484375,0.03200000151991844,0.035999998450279236,-0.026000000536441803
1728651078131307300,1.615307373046875,0.19699999690055847,0.06700000166893005,-0.08699999749660492
1728651078140912600,1.62491259765625,0.19599999487400055,0.06300000101327896,-0.0860000029206276
1728651078150517500,1.634517578125,0.16899999976158142,0.024000000208616257,-0.12999999523162842
1728651078160123000,1.644122802734375,0.25,-0.003000000026077032,-0.12399999797344208
1728651078169728000,1.65372802734375,0.27799999713897705,-0.0020000000949949026,-0.12700000405311584
1728651078179333400,1.66333349609375,0.1420000046491623,-0.003000000026077032,0.004999999888241291
1728651078188938500,1.6729384765625,0.12800000607967377,-0.03099999949336052,0.03200000151991844
1728651078198543600,1.682543701171875,0.2770000100135803,-0.04800000041723251,0.04500000178813934
1728651078208148700,1.692148681640625,0.24899999797344208,-0.023000000044703484,0.04500000178813934
1728651078217753900,1.70175390625,-0.02199999988079071,0.004000000189989805,0.02800000086426735
1728651078227359200,1.711359130859375,0.017999999225139618,0.03200000151991844,-0.012000000104308128
1728651078236964400,1.72096435546875,0.22200000286102295,0.003000000026077032,-0.03700000047683716
1728651078246569700,1.73056982421875,0.15399999916553497,0.004000000189989805,-0.026000000536441803
1728651078256174600,1.740174560546875,0.14100000262260437,-0.04600000008940697,-0.03799999877810478
1728651078265779700,1.74977978515625,0.18299999833106995,-0.08500000089406967,-0.04100000113248825
1728651078275385000,1.759385009765625,0.210999995470047,-0.11999999731779099,-0.039000000804662704
1728651078284990200,1.768990234375,0.21199999749660492,-0.10599999874830246,-0.013000000268220901
1728651078294595300,1.77859521484375,0.10300000011920929,0.0010000000474974513,0.009999999776482582
1728651078304200400,1.788200439453125,0.03500000014901161,-0.026000000536441803,0.04899999871850014
1728651078313805800,1.797805908203125,0.03500000014901161,0.013000000268220901,0.04399999976158142
1728651078323411000,1.807410888671875,0.06199999898672104,-0.013000000268220901,0.07100000232458115
1728651078333016000,1.81701611328125,0.1850000023841858,-0.03999999910593033,0.06599999964237213
1728651078342621200,1.82662109375,0.14499999582767487,-0.026000000536441803,0.09300000220537186
1728651078352226300,1.836226318359375,0.09200000017881393,-0.04899999871850014,0.0860000029206276
1728651078361831400,1.84583154296875,0.18799999356269836,-0.03400000184774399,0.04399999976158142
1728651078371436800,1.855436767578125,0.17499999701976776,-0.032999999821186066,0.054999999701976776
1728651078381042000,1.8650419921875,0.2290000021457672,-0.08699999749660492,0.06800000369548798
1728651078390647000,1.87464697265625,0.20399999618530273,-0.10899999737739563,0.11599999666213989
1728651078400252200,1.884252197265625,0.08100000023841858,-0.10899999737739563,0.1420000046491623
1728651078409857300,1.893857177734375,0.11100000143051147,-0.11500000208616257,0.13099999725818634
1728651078419462400,1.90346240234375,0.2070000022649765,-0.1289999932050705,0.12800000607967377
1728651078429067800,1.91306787109375,0.18199999630451202,-0.12300000339746475,0.16899999976158142
1728651078438673000,1.9226728515625,0.12800000607967377,-0.054999999701976776,0.12700000405311584
1728651078448278000,1.932278076171875,0.03500000014901161,-0.039000000804662704,0.13099999725818634
1728651078457883100,1.941883056640625,-0.01899999938905239,-0.06400000303983688,0.14399999380111694
1728651078467488500,1.951488525390625,0.09099999815225601,-0.07199999690055847,0.12300000339746475
1728651078477093600,1.96109375,0.1599999964237213,-0.07100000232458115,0.09600000083446503
1728651078486698800,1.97069873046875,0.2840000092983246,-0.0949999988079071,0.09200000017881393
1728651078496304000,1.98030419921875,0.27000001072883606,-0.12200000137090683,0.07900000363588333
1728651078505909000,1.989908935546875,0.23100000619888306,-0.14399999380111694,0.07599999755620956
1728651078515514400,1.999514404296875,0.12200000137090683,-0.13099999725818634,0.12999999523162842
1728651078525119500,2.009119384765625,0.02800000086426735,-0.0729999989271164,0.1459999978542328
1728651078534724600,2.018724609375,0.028999999165534973,-0.07199999690055847,0.14399999380111694
1728651078544330000,2.028330078125,0.04500000178813934,-0.07999999821186066,0.17000000178813934
1728651078553934800,2.037934814453125,0.0729999989271164,-0.10499999672174454,0.16899999976158142
1728651078563540000,2.0475400390625,0.10199999809265137,-0.02199999988079071,0.11900000274181366
1728651078573145300,2.057145263671875,0.27900001406669617,-0.07500000298023224,0.09200000017881393
1728651078582750500,2.06675048828125,0.25200000405311584,-0.03500000014901161,0.035999998450279236
1728651078592355600,2.07635546875,0.14300000667572021,-0.006000000052154064,0.00800000037997961
1728651078601961000,2.0859609375,0.13099999725818634,-0.07000000029802322,-0.003000000026077032
1728651078611565800,2.09556591796875,0.1720000058412552,-0.08299999684095383,-0.004000000189989805
1728651078621171200,2.105171142578125,0.11900000274181366,-0.09200000017881393,0.007000000216066837
1728651078630776300,2.1147763671875,0.11900000274181366,-0.06400000303983688,0.019999999552965164
1728651078640381400,2.12438134765625,0.20100000500679016,-0.06300000101327896,0.057999998331069946
1728651078649986800,2.13398681640625,0.10599999874830246,-0.02199999988079071,0.08299999684095383
1728651078659591700,2.143591796875,0.10700000077486038,-0.04699999839067459,0.06300000101327896
1728651078669197000,2.153197021484375,0.09399999678134918,-0.05900000035762787,0.03400000184774399
1728651078678802200,2.16280224609375,0.0820000022649765,-0.08100000023841858,0.04500000178813934
1728651078688407300,2.1724072265625,0.09700000286102295,-0.050999999046325684,0.003000000026077032
1728651078698012700,2.1820126953125,0.09799999743700027,-0.02199999988079071,0.05299999937415123
1728651078707617800,2.19161767578125,0.289000004529953,-0.03400000184774399,0.010999999940395355
1728651078717223000,2.201222900390625,0.32899999618530273,-0.04899999871850014,0.03700000047683716
1728651078726828000,2.210828125,0.23399999737739563,-0.07599999755620956,0.03700000047683716
1728651078736433400,2.220433349609375,0.1120000034570694,-0.0729999989271164,0.03700000047683716
1728651078746038500,2.23003857421875,0.22100000083446503,-0.07500000298023224,0.06599999964237213
1728651078755643600,2.2396435546875,0.3019999861717224,-0.09099999815225601,0.10400000214576721
1728651078765249000,2.2492490234375,0.20600000023841858,-0.06599999964237213,0.07900000363588333
1728651078774854100,2.258854248046875,0.029999999329447746,-0.03700000047683716,0.0860000029206276
1728651078784459300,2.268459228515625,-0.07800000160932541,-0.04899999871850014,0.08500000089406967
1728651078794064400,2.278064453125,0.10000000149011612,-0.07199999690055847,0.04100000113248825
1728651078803669500,2.28766943359375,0.20999999344348907,-0.07000000029802322,0.02500000037252903
1728651078813274600,2.297274658203125,0.2240000069141388,-0.06800000369548798,0.010999999940395355
1728651078822880000,2.3068798828125,0.26499998569488525,-0.05400000140070915,-0.029999999329447746
1728651078832485000,2.316485107421875,0.19599999487400055,-0.04100000113248825,-0.039000000804662704
1728651078842090200,2.32609033203125,0.2370000034570694,-0.0560000017285347,-0.012000000104308128
1728651078851695400,2.3356953125,0.12800000607967377,-0.08100000023841858,0.014999999664723873
1728651078861300700,2.34530078125,0.12800000607967377,-0.054999999701976776,0.029999999329447746
1728651078870905900,2.35490576171875,0.14100000262260437,-0.01600000075995922,0.041999999433755875
1728651078880511000,2.364510986328125,0.05900000035762787,-0.003000000026077032,0.041999999433755875
1728651078890116400,2.374116455078125,0.05999999865889549,-0.028999999165534973,0.052000001072883606
1728651078899721200,2.38372119140625,0.2240000069141388,-0.0010000000474974513,-0.003000000026077032
1728651078909326600,2.39332666015625,0.25,-0.028999999165534973,-0.054999999701976776
1728651078918931700,2.402931640625,0.10100000351667404,0.012000000104308128,-0.07100000232458115
1728651078928537000,2.412537109375,0.12800000607967377,0,-0.06700000166893005
1728651078938142200,2.42214208984375,0.1289999932050705,0.02800000086426735,-0.09600000083446503
1728651078947747300,2.431747314453125,0.2630000114440918,0.02199999988079071,-0.06300000101327896
1728651078957352400,2.4413525390625,0.12700000405311584,0.035999998450279236,-0.03700000047683716
1728651078966957600,2.45095751953125,0.057999998331069946,0.020999999716877937,-0.02199999988079071
1728651078976562700,2.460562744140625,0.1809999942779541,0.007000000216066837,-0.06499999761581421
1728651078986168000,2.47016796875,0.19300000369548798,0.014999999664723873,-0.09799999743700027
1728651078995773200,2.479773193359375,0.17900000512599945,0.0020000000949949026,-0.11299999803304672
1728651079005378600,2.489378662109375,0.15000000596046448,0.03799999877810478,-0.11800000071525574
1728651079014983700,2.498983642578125,0.10899999737739563,0.03999999910593033,-0.09200000017881393
1728651079024588800,2.5085888671875,0.12300000339746475,0,-0.02199999988079071
1728651079034194000,2.51819384765625,0.21799999475479126,0.013000000268220901,-0.03500000014901161
1728651079043799300,2.52779931640625,0.2029999941587448,0.02199999988079071,0.006000000052154064
1728651079053404400,2.537404296875,0.08100000023841858,-0.017000000923871994,0.032999999821186066
1728651079063009500,2.547009521484375,0.08100000023841858,-0.028999999165534973,0.007000000216066837
1728651079072615000,2.556614990234375,0.12200000137090683,-0.02800000086426735,0.00800000037997961
1728651079082219800,2.5662197265625,0.10899999737739563,-0.03999999910593033,-0.003000000026077032
1728651079091825200,2.5758251953125,0.12300000339746475,-0.039000000804662704,-0.029999999329447746
1728651079101430300,2.58543017578125,0.17800000309944153,-0.06400000303983688,0.009999999776482582
1728651079111035400,2.595035400390625,0.164000004529953,-0.07699999958276749,0.023000000044703484
1728651079120640800,2.604640869140625,0.09700000286102295,-0.04800000041723251,0.04699999839067459
1728651079130246000,2.614245849609375,0.1379999965429306,-0.032999999821186066,0.04500000178813934
1728651079139851000,2.62385107421875,0.26100000739097595,-0.05900000035762787,0.0430000014603138
1728651079149456400,2.633456298828125,0.22100000083446503,-0.07100000232458115,0.0689999982714653
1728651079159061500,2.6430615234375,0.14100000262260437,-0.06800000369548798,0.06499999761581421
1728651079168666600,2.65266650390625,0.11400000005960464,-0.06599999964237213,0.06499999761581421
1728651079178271700,2.662271728515625,0.1679999977350235,-0.03799999877810478,0.012000000104308128
1728651079187877000,2.671877197265625,0.12800000607967377,0.0020000000949949026,0.03799999877810478
1728651079197482200,2.681482177734375,0.07400000095367432,-0.023000000044703484,0.04699999839067459
1728651079207087400,2.69108740234375,0.19699999690055847,-0.023000000044703484,0.01899999938905239
1728651079216692700,2.700692626953125,0.27900001406669617,-0.06400000303983688,0.04399999976158142
1728651079226297600,2.710297607421875,0.08799999952316284,-0.035999998450279236,-0.02500000037252903
1728651079235903200,2.7199033203125,0.007000000216066837,-0.006000000052154064,-0.06300000101327896
1728651079245508000,2.729508056640625,0.11699999868869781,0.02199999988079071,-0.06599999964237213
1728651079255113500,2.739113525390625,0.1979999989271164,0.019999999552965164,0.0010000000474974513
1728651079264718600,2.748718505859375,0.22599999606609344,0.00800000037997961,0.03999999910593033
1728651079274324000,2.758323974609375,0.1720000058412552,-0.004999999888241291,0.050999999046325684
1728651079283929000,2.76792919921875,0.1720000058412552,-0.057999998331069946,0.009999999776482582
1728651079293534200,2.7775341796875,0.20000000298023224,-0.0689999982714653,0.010999999940395355
1728651079303139300,2.787139404296875,0.1860000044107437,-0.054999999701976776,0.039000000804662704
1728651079312744400,2.796744384765625,0.23999999463558197,-0.01600000075995922,-0.014000000432133675
1728651079322349800,2.806349853515625,0.035999998450279236,-0.014999999664723873,0.009999999776482582
1728651079331955000,2.815954833984375,0.28200000524520874,-0.10700000077486038,-0.0010000000474974513
1728651079341560300,2.825560302734375,0.20000000298023224,-0.052000001072883606,0.010999999940395355
1728651079351165400,2.83516552734375,0.1459999978542328,-0.050999999046325684,-0.0010000000474974513
1728651079360770600,2.8447705078125,0.20100000500679016,-0.050999999046325684,-0.0010000000474974513
1728651079370376000,2.8543759765625,0.1599999964237213,-0.010999999940395355,0.03700000047683716
1728651079379980800,2.863980712890625,0.13300000131130219,-0.010999999940395355,0.035999998450279236
1728651079389586200,2.873586181640625,0.1589999943971634,0.013000000268220901,0.009999999776482582
1728651079399191300,2.88319140625,0.21400000154972076,-0.027000000700354576,-0.01600000075995922
1728651079408796400,2.89279638671875,0.19900000095367432,-0.028999999165534973,-0.012000000104308128
1728651079418401800,2.90240185546875,0.15800000727176666,-0.05700000002980232,-0.010999999940395355
1728651079428007000,2.9120068359375,0.1850000023841858,-0.0560000017285347,0.017000000923871994
1728651079437612000,2.921612060546875,0.17100000381469727,-0.05700000002980232,0.03099999949336052
1728651079447217400,2.931217529296875,0.15800000727176666,-0.03099999949336052,0.0560000017285347
1728651079456822500,2.940822509765625,0.11699999868869781,-0.057999998331069946,0.041999999433755875
1728651079466427600,2.950427734375,0.09099999815225601,-0.041999999433755875,0.026000000536441803
1728651079476032800,2.96003271484375,0.06400000303983688,-0.027000000700354576,0.009999999776482582
1728651079485638000,2.969637939453125,0.1589999943971634,-0.014999999664723873,-0.014999999664723873
1728651079495243300,2.9792431640625,0.22699999809265137,-0.014999999664723873,0.02500000037252903
1728651079504848400,2.988848388671875,0.1589999943971634,-0.041999999433755875,0.012000000104308128
1728651079514453500,2.99845361328125,0.14499999582767487,-0.028999999165534973,-0.013000000268220901
1728651079524058600,3.00805859375,0.11699999868869781,0.008999999612569809,0.014000000432133675
1728651079533664000,3.0176640625,0.09000000357627869,0.035999998450279236,0.02800000086426735
1728651079543269000,3.02726904296875,0.17100000381469727,0.007000000216066837,0.0010000000474974513
1728651079552874200,3.036874267578125,0.17100000381469727,-0.03200000151991844,-0.013000000268220901
1728651079562479400,3.046479248046875,0.14499999582767487,-0.08100000023841858,0.013000000268220901
1728651079572084700,3.056084716796875,0.13199999928474426,-0.09300000220537186,0.02500000037252903
1728651079581689900,3.06568994140625,0.1469999998807907,-0.07400000095367432,-0.014000000432133675
1728651079591295000,3.075294921875,0.18799999356269836,-0.03200000151991844,-0.014999999664723873
1728651079600900400,3.084900390625,0.2290000021457672,-0.019999999552965164,0.03700000047683716
1728651079610505500,3.09450537109375,0.17499999701976776,-0.032999999821186066,0.03700000047683716
1728651079620110600,3.104110595703125,0.1889999955892563,-0.05999999865889549,0.03700000047683716
1728651079629716000,3.113716064453125,0.14800000190734863,-0.0729999989271164,0.024000000208616257
1728651079639321000,3.123321044921875,0.12099999934434891,-0.057999998331069946,-0.0010000000474974513
1728651079648926200,3.13292626953125,0.09300000220537186,-0.057999998331069946,-0.0010000000474974513
1728651079658531600,3.142531494140625,0.07999999821186066,-0.017000000923871994,0.024000000208616257
1728651079668136700,3.15213671875,0.13500000536441803,-0.029999999329447746,0.05000000074505806
1728651079677741800,3.161741943359375,0.14900000393390656,-0.054999999701976776,0.03500000014901161
1728651079687347000,3.171346923828125,0.08100000023841858,-0.06800000369548798,0.07599999755620956
1728651079696952300,3.180952392578125,0.10999999940395355,-0.07699999958276749,0.04699999839067459
1728651079706557400,3.190557373046875,0.17800000309944153,-0.06199999898672104,0.04699999839067459
1728651079716162800,3.200162841796875,0.17800000309944153,-0.04699999839067459,0.019999999552965164
1728651079725768000,3.209767822265625,0.16500000655651093,-0.07400000095367432,0.0729999989271164
1728651079735373300,3.219373291015625,0.27399998903274536,-0.061000000685453415,0.04500000178813934
1728651079744978400,3.228978515625,0.07000000029802322,-0.04699999839067459,0.0430000014603138
1728651079754583600,3.23858349609375,0.07100000232458115,-0.04399999976158142,0.013000000268220901
1728651079764188700,3.248188720703125,0.18000000715255737,-0.07100000232458115,0.039000000804662704
1728651079773794000,3.2577939453125,0.1809999942779541,-0.0560000017285347,0.08699999749660492
1728651079783399200,3.267399169921875,0.11299999803304672,-0.054999999701976776,0.0860000029206276
1728651079793004300,3.27700439453125,0.22300000488758087,-0.06800000369548798,0.0430000014603138
1728651079802609700,3.286609619140625,0.3179999887943268,-0.054999999701976776,0.0020000000949949026
1728651079812214800,3.29621484375,0.25,-0.06800000369548798,0.028999999165534973
1728651079821820200,3.305820068359375,0.05900000035762787,-0.06700000166893005,0.04399999976158142
1728651079831425300,3.31542529296875,0.05999999865889549,-0.05000000074505806,0.029999999329447746
1728651079841030400,3.325030517578125,0.1289999932050705,-0.008999999612569809,0.07100000232458115
1728651079850635500,3.334635498046875,0.1420000046491623,-0.023000000044703484,0.041999999433755875
1728651079860240600,3.34424072265625,0.18299999833106995,-0.023000000044703484,0.03999999910593033
1728651079869846000,3.353845947265625,0.15700000524520874,-0.07500000298023224,0.06199999898672104
1728651079879451100,3.363451171875,0.13099999725818634,-0.08799999952316284,0.05900000035762787
1728651079889056300,3.37305615234375,0.13099999725818634,-0.032999999821186066,0.01600000075995922
1728651079898661600,3.38266162109375,0.2540000081062317,-0.01899999938905239,0.041999999433755875
1728651079908266800,3.392266845703125,0.30799999833106995,-0.04899999871850014,0.03999999910593033
1728651079917872000,3.4018720703125,0.19900000095367432,-0.07599999755620956,0.039000000804662704
1728651079927477200,3.411477294921875,0.09099999815225601,-0.05900000035762787,0.03799999877810478
1728651079937082400,3.421082275390625,0.008999999612569809,-0.004000000189989805,0.05299999937415123
1728651079946687700,3.430687744140625,0.22599999606609344,-0.032999999821186066,-0.010999999940395355
1728651079956292900,3.44029296875,0.32199999690055847,-0.061000000685453415,-0.010999999940395355
1728651079965898000,3.44989794921875,0.2529999911785126,-0.10000000149011612,0.004000000189989805
1728651079975503400,3.45950341796875,0.07599999755620956,-0.10100000351667404,0.004999999888241291
1728651079985108200,3.469108154296875,-0.0430000014603138,-0.06599999964237213,0.017000000923871994
1728651079994713600,3.478713623046875,0.03799999877810478,-0.024000000208616257,0.02800000086426735
1728651080004318700,3.488318603515625,0.1889999955892563,-0.03700000047683716,0.03700000047683716
1728651080013924000,3.497924072265625,0.257999986410141,-0.03500000014901161,0.05999999865889549
1728651080023529200,3.507529296875,0.2029999941587448,-0.02199999988079071,0.003000000026077032
1728651080033134600,3.517134521484375,0.257999986410141,-0.035999998450279236,0.01600000075995922
1728651080042739700,3.52673974609375,0.23000000417232513,-0.024000000208616257,0.004000000189989805
1728651080052344800,3.5363447265625,0.10700000077486038,0.014999999664723873,0.004999999888241291
1728651080061950200,3.5459501953125,0.1599999964237213,0.024000000208616257,-0.017000000923871994
1728651080071555300,3.555555419921875,0.09200000017881393,0.03799999877810478,-0.0010000000474974513
1728651080081160400,3.565160400390625,0.05000000074505806,0.03500000014901161,0.024000000208616257
1728651080090765800,3.574765869140625,0.13199999928474426,-0.03200000151991844,-0.003000000026077032
1728651080100371000,3.584370849609375,0.30799999833106995,-0.04800000041723251,-0.03799999877810478
1728651080109976000,3.59397607421875,0.3070000112056732,-0.07599999755620956,-0.07800000160932541
1728651080119581400,3.60358154296875,0.23800000548362732,-0.07699999958276749,-0.004999999888241291
1728651080129186600,3.6131865234375,0.08799999952316284,-0.024000000208616257,0.050999999046325684
1728651080138791700,3.622791748046875,0.18299999833106995,-0.05299999937415123,0.10300000011920929
1728651080148397000,3.63239697265625,0.4410000145435333,-0.08299999684095383,0.03799999877810478
1728651080158002200,3.642002197265625,0.017000000923871994,0.020999999716877937,-0.010999999940395355
1728651080167607600,3.651607666015625,0.017000000923871994,-0.0729999989271164,0.017999999225139618
1728651080177212700,3.661212646484375,-0.02199999988079071,-0.054999999701976776,-0.04600000008940697
1728651080186817800,3.67081787109375,-0.03500000014901161,-0.026000000536441803,0.019999999552965164
1728651080196423200,3.680423095703125,-0.01899999938905239,-0.08500000089406967,0.06800000369548798
1728651080206028300,3.6900283203125,0.14399999380111694,-0.1120000034570694,0.10599999874830246
1728651080215633400,3.69963330078125,0.3630000054836273,-0.15000000596046448,0.06199999898672104
1728651080225238800,3.70923876953125,0.4309999942779541,-0.16599999368190765,0.07500000298023224
1728651080234844000,3.718843994140625,0.29499998688697815,-0.10999999940395355,0.09799999743700027
1728651080244449300,3.72844921875,0.009999999776482582,-0.08299999684095383,0.11100000143051147
1728651080254054400,3.738054443359375,-0.12300000339746475,-0.009999999776482582,0.10000000149011612
1728651080263659500,3.747659423828125,-0.08100000023841858,0.006000000052154064,0.054999999701976776
1728651080273264600,3.7572646484375,0.19200000166893005,-0.04600000008940697,0.02199999988079071
1728651080282870000,3.7668701171875,0.35499998927116394,-0.04500000178813934,-0.020999999716877937
1728651080292475100,3.77647509765625,0.2460000067949295,-0.03400000184774399,-0.029999999329447746
1728651080302080300,3.786080322265625,0.10899999737739563,0.032999999821186066,-0.029999999329447746
1728651080311685600,3.795685546875,-0.03999999910593033,0.04500000178813934,0.02199999988079071
1728651080321290800,3.805290771484375,-0.039000000804662704,0.04699999839067459,0.06199999898672104
1728651080330896100,3.814896240234375,0.014999999664723873,0.01899999938905239,0.0689999982714653
1728651080340501200,3.824501220703125,0.10999999940395355,0.006000000052154064,0.054999999701976776
1728651080350106400,3.8341064453125,0.19200000166893005,-0.008999999612569809,0.039000000804662704
1728651080359711700,3.843711669921875,0.09700000286102295,-0.02199999988079071,0.052000001072883606
1728651080369316900,3.85331689453125,0.0430000014603138,-0.04699999839067459,0.03500000014901161
1728651080378922200,3.862922119140625,0.05700000002980232,-0.04600000008940697,-0.006000000052154064
1728651080388527400,3.87252734375,0.08500000089406967,-0.03099999949336052,0.017999999225139618
1728651080398132700,3.8821328125,0.0989999994635582,-0.03099999949336052,0.041999999433755875
1728651080407737900,3.89173779296875,0.20900000631809235,-0.057999998331069946,0.03700000047683716
1728651080417343200,3.90134326171875,0.23600000143051147,-0.10100000351667404,-0.019999999552965164
1728651080426948000,3.910947998046875,0.19599999487400055,-0.09799999743700027,-0.01899999938905239
1728651080436553500,3.920553466796875,0.01899999938905239,-0.029999999329447746,0.004999999888241291
1728651080446158600,3.93015869140625,-0.07400000095367432,0.013000000268220901,0.014000000432133675
1728651080455764000,3.939763916015625,0.020999999716877937,-0.024000000208616257,0.024000000208616257
1728651080465369000,3.949369140625,0.19900000095367432,-0.06199999898672104,0.00800000037997961
1728651080474974200,3.95897412109375,0.18700000643730164,-0.07400000095367432,0.03099999949336052
1728651080484579600,3.96857958984375,0.06599999964237213,-0.06800000369548798,0.02500000037252903
1728651080494184700,3.978184814453125,0.08100000023841858,-0.039000000804662704,0.04899999871850014
1728651080503790000,3.9877900390625,0.23100000619888306,-0.03999999910593033,0.007000000216066837
1728651080513395200,3.997395263671875,0.24400000274181366,-0.013000000268220901,0.04600000008940697
1728651080523000600,4.00700048828125,0.20399999618530273,-0.01600000075995922,0.11900000274181366
1728651080532605700,4.016605712890625,0.13600000739097595,-0.014999999664723873,0.10199999809265137
1728651080542210800,4.0262109375,0.09700000286102295,-0.03999999910593033,0.041999999433755875
1728651080551816200,4.035816162109375,0.1120000034570694,-0.07800000160932541,0.05000000074505806
1728651080561421300,4.04542138671875,0.15299999713897705,0.0020000000949949026,-0.017000000923871994
1728651080571026700,4.055026611328125,0.1809999942779541,0.004000000189989805,0.020999999716877937
1728651080580631800,4.0646318359375,0.15399999916553497,-0.009999999776482582,0.09600000083446503
1728651080590237000,4.07423681640625,-0.06199999898672104,0.11299999803304672,0.4869999885559082
1728651080599842000,4.083842041015625,0.3050000071525574,-0.16500000655651093,-0.08900000154972076
1728651080609447200,4.093447265625,0.14300000667572021,-0.014000000432133675,-0.041999999433755875
1728651080619052500,4.103052490234375,0.11699999868869781,-0.03999999910593033,0.019999999552965164
1728651080628657700,4.11265771484375,0.2939999997615814,-0.09399999678134918,-0.008999999612569809
1728651080638262800,4.1222626953125,0.1720000058412552,-0.05299999937415123,-0.04800000041723251
1728651080647868200,4.1318681640625,0.13099999725818634,-0.07900000363588333,-0.02199999988079071
1728651080657473300,4.141473388671875,0.05000000074505806,-0.023000000044703484,-0.03500000014901161
1728651080667078700,4.15107861328125,0.07800000160932541,-0.00800000037997961,0.003000000026077032
1728651080676683800,4.160683837890625,0.2540000081062317,-0.012000000104308128,0.09399999678134918
1728651080686289200,4.1702890625,0.3490000069141388,-0.04100000113248825,0.10999999940395355
1728651080695894300,4.179894287109375,0.15800000727176666,-0.04399999976158142,0.10599999874830246
1728651080705499400,4.18949951171875,0.03500000014901161,-0.03200000151991844,0.06599999964237213
1728651080715104500,4.1991044921875,0.15600000321865082,-0.023000000044703484,0.0020000000949949026
1728651080724710000,4.2087099609375,0.18199999630451202,-0.012000000104308128,-0.06199999898672104
1728651080734315000,4.21831494140625,0.11100000143051147,-0.014999999664723873,-0.1809999942779541
1728651080743920400,4.22792041015625,-0.052000001072883606,0.024000000208616257,0.023000000044703484
1728651080753525500,4.237525390625,-0.06499999761581421,0.009999999776482582,0.020999999716877937
1728651080763131000,4.247130859375,0.08399999886751175,-0.0430000014603138,0.032999999821186066
1728651080772735700,4.25673583984375,0.19300000369548798,-0.0430000014603138,-0.006000000052154064
1728651080782341000,4.266341064453125,0.2199999988079071,-0.0560000017285347,0.004999999888241291
1728651080791946200,4.2759462890625,0.13899999856948853,-0.05400000140070915,-0.032999999821186066
1728651080801551600,4.285551513671875,0.15299999713897705,-0.026000000536441803,0.019999999552965164
1728651080811156700,4.29515673828125,0.1940000057220459,-0.05299999937415123,0.007000000216066837
1728651080820761900,4.304761962890625,0.1940000057220459,-0.05299999937415123,0.04800000041723251
1728651080830367200,4.3143671875,0.24799999594688416,-0.07900000363588333,0.04800000041723251
1728651080839972400,4.323972412109375,0.1120000034570694,-0.17399999499320984,-0.0560000017285347
1728651080849577700,4.33357763671875,0.04899999871850014,-0.289000004529953,0.18799999356269836
1728651080859182800,4.343182861328125,0.3070000112056732,0.32199999690055847,-0.03999999910593033
1728651080868788000,4.3527880859375,0.0989999994635582,0.06800000369548798,-0.07000000029802322
1728651080878393300,4.362393310546875,0.2070000022649765,-0.02800000086426735,0.11100000143051147
1728651080887998500,4.37199853515625,0.07100000232458115,-0.01600000075995922,0.09300000220537186
1728651080897603800,4.381603759765625,0.029999999329447746,-0.003000000026077032,-0.04100000113248825
1728651080907209000,4.391208984375,0.19300000369548798,0.006000000052154064,0.02500000037252903
1728651080916814000,4.40081396484375,0.09799999743700027,0.04800000041723251,0.008999999612569809
1728651080926419200,4.410419189453125,0.20600000023841858,0.017000000923871994,-0.004000000189989805
1728651080936024300,4.4200244140625,0.26100000739097595,0.017000000923871994,0.020999999716877937
1728651080945629700,4.429629638671875,0.164000004529953,0.014000000432133675,-0.017000000923871994
1728651080955234800,4.43923486328125,0.164000004529953,0.014999999664723873,0.03700000047683716
1728651080964840200,4.448840087890625,0.15000000596046448,0,0.03700000047683716
1728651080974445300,4.4584453125,0.15000000596046448,-0.027000000700354576,0.052000001072883606
1728651080984050400,4.468050537109375,0.20399999618530273,-0.041999999433755875,0.026000000536441803
1728651080993655800,4.47765576171875,0.1899999976158142,-0.014999999664723873,0.02800000086426735
1728651081003261000,4.487260986328125,0.10700000077486038,-0.004000000189989805,0.004000000189989805
1728651081012866000,4.496865966796875,0.07999999821186066,0.02199999988079071,-0.007000000216066837
1728651081022471400,4.506471435546875,0.10599999874830246,0.006000000052154064,-0.004999999888241291
1728651081032076500,4.51607666015625,0.10599999874830246,-0.006000000052154064,0.020999999716877937
1728651081041682000,4.525681884765625,0.17499999701976776,-0.032999999821186066,0.03400000184774399
1728651081051287000,4.535287109375,0.20200000703334808,-0.03200000151991844,0.07400000095367432
1728651081060892400,4.544892333984375,0.1899999976158142,-0.05700000002980232,0.0560000017285347
1728651081070497500,4.55449755859375,0.1899999976158142,-0.0560000017285347,0.08100000023841858
1728651081080102700,4.5641025390625,0.12399999797344208,-0.07800000160932541,0.04899999871850014
1728651081089707800,4.573707763671875,0.16599999368190765,-0.08799999952316284,0.017000000923871994
1728651081099313200,4.583313232421875,0.15600000321865082,-0.09200000017881393,-0.028999999165534973
1728651081108918300,4.592918212890625,0.035999998450279236,-0.004999999888241291,0.07100000232458115
1728651081118523400,4.6025234375,-0.013000000268220901,-0.05000000074505806,0.11999999731779099
1728651081128128800,4.612128662109375,0.1120000034570694,0.050999999046325684,0.10899999737739563
1728651081137734000,4.62173388671875,0.2770000100135803,-0.0010000000474974513,0.0560000017285347
1728651081147339300,4.63133935546875,0.22499999403953552,0.01600000075995922,0.07400000095367432
1728651081156944400,4.6409443359375,0.21199999749660492,0.04100000113248825,0.02500000037252903
1728651081166549500,4.650549560546875,0.2409999966621399,0.05700000002980232,-0.006000000052154064
1728651081176155000,4.66015478515625,0.1979999989271164,0.08900000154972076,-0.01899999938905239
1728651081185760000,4.669760009765625,0.15800000727176666,0.06400000303983688,-0.03700000047683716
1728651081195365400,4.679365478515625,0.1860000044107437,-0.029999999329447746,0
1728651081204970500,4.688970458984375,0.18700000643730164,-0.04100000113248825,-0.01600000075995922
1728651081214575900,4.698575927734375,0.24199999868869781,-0.03999999910593033,-0.004000000189989805
1728651081224181000,4.708180908203125,-0.041999999433755875,0.004000000189989805,-0.008999999612569809
1728651081233786000,4.7177861328125,0.21799999475479126,-0.09799999743700027,0.013000000268220901
1728651081243391500,4.7273916015625,0.26100000739097595,-0.0689999982714653,0.03500000014901161
1728651081252996400,4.736996337890625,0.1809999942779541,-0.06499999761581421,0.03999999910593033
1728651081262601700,4.746601806640625,0.1679999977350235,-0.11800000071525574,0.04800000041723251
1728651081272206800,4.756206787109375,0.15600000321865082,-0.0729999989271164,0.03099999949336052
1728651081281812200,4.765812255859375,0.07599999755620956,-0.07100000232458115,0.04100000113248825
1728651081291417300,4.775417236328125,0.03700000047683716,-0.06400000303983688,0
1728651081301022700,4.785022705078125,0.1469999998807907,-0.11599999666213989,-0.004000000189989805
1728651081310627800,4.7946279296875,0.13600000739097595,-0.12200000137090683,-0.004000000189989805
1728651081320233000,4.80423291015625,0.30000001192092896,-0.1469999998807907,0.03200000151991844
1728651081329838000,4.813838134765625,0.26100000739097595,-0.12800000607967377,0.0689999982714653
1728651081339443500,4.823443359375,0.15299999713897705,-0.10000000149011612,0.07900000363588333
1728651081349048600,4.833048583984375,0.11400000005960464,-0.0820000022649765,0.0729999989271164
1728651081358654000,4.842654052734375,0.14100000262260437,-0.04100000113248825,0.057999998331069946
1728651081368259000,4.852259033203125,0.2639999985694885,-0.0430000014603138,0.054999999701976776
1728651081377864200,4.8618642578125,0.29100000858306885,-0.0989999994635582,0.03999999910593033
1728651081387469600,4.871469482421875,0.2639999985694885,-0.1120000034570694,0.05400000140070915
1728651081397074700,4.88107470703125,0.20900000631809235,-0.10000000149011612,0.05700000002980232
1728651081406680000,4.89068017578125,0.20800000429153442,-0.07400000095367432,0.08399999886751175
1728651081416285200,4.90028515625,0.18000000715255737,-0.07599999755620956,0.1289999932050705
1728651081425890300,4.909890380859375,0.15199999511241913,-0.03799999877810478,0.10000000149011612
1728651081435495700,4.91949560546875,0.09700000286102295,-0.012000000104308128,0.07500000298023224
1728651081445100800,4.929100830078125,0.0430000014603138,-0.012000000104308128,0.08399999886751175
1728651081454706200,4.9387060546875,0.01600000075995922,-0.012000000104308128,0.07000000029802322
1728651081464311300,4.948311279296875,0.1120000034570694,-0.02500000037252903,-0.009999999776482582
1728651081473916400,4.95791650390625,0.3160000145435333,-0.012000000104308128,-0.050999999046325684
1728651081483521500,4.967521484375,0.3540000021457672,-0.03099999949336052,-0.04399999976158142
1728651081493127000,4.977126953125,0.29899999499320984,-0.04600000008940697,-0.0020000000949949026
1728651081502732000,4.98673193359375,0.16300000250339508,-0.04699999839067459,0.03799999877810478
1728651081512337400,4.99633740234375,0.05299999937415123,-0.08799999952316284,0.039000000804662704
1728651081521942500,5.005942626953125,0.13600000739097595,-0.04600000008940697,0.06400000303983688
1728651081531548000,5.0155478515625,0.13600000739097595,-0.04600000008940697,0.05000000074505806
1728651081541153000,5.025153076171875,0.14900000393390656,-0.03200000151991844,0.009999999776482582
1728651081550758100,5.034758056640625,0.23100000619888306,-0.05999999865889549,-0.01600000075995922
1728651081560363500,5.044363525390625,0.18799999356269836,0.01600000075995922,-0.06400000303983688
1728651081569968600,5.05396875,0.07900000363588333,0.0020000000949949026,-0.06400000303983688
1728651081579574000,5.063573974609375,0.05000000074505806,0.027000000700354576,-0.0729999989271164
1728651081589179100,5.07317919921875,0.11900000274181366,0.02800000086426735,-0.05999999865889549
1728651081598784300,5.0827841796875,0.13199999928474426,0.02500000037252903,-0.01899999938905239
1728651081608389600,5.0923896484375,0.11900000274181366,0.04100000113248825,-0.007000000216066837
1728651081617994800,5.101994873046875,0.17299999296665192,0.024000000208616257,0.01600000075995922
1728651081627600100,5.11160009765625,0.2280000001192093,-0.014000000432133675,0.014000000432133675
1728651081637205200,5.121205322265625,0.20100000500679016,-0.027000000700354576,0.014000000432133675
1728651081646810600,5.130810546875,0.20200000703334808,-0.052000001072883606,0.014000000432133675
1728651081656415500,5.14041552734375,0.06700000166893005,-0.03400000184774399,0.027000000700354576
1728651081666020600,5.1500205078125,0.013000000268220901,-0.04399999976158142,0.014999999664723873
1728651081675626200,5.159626220703125,0.09700000286102295,-0.07800000160932541,0.014000000432133675
1728651081685231400,5.1692314453125,0.11100000143051147,-0.06199999898672104,0.03799999877810478
1728651081694836500,5.17883642578125,0.19499999284744263,-0.0729999989271164,0.05900000035762787
1728651081704441600,5.188441650390625,0.22300000488758087,-0.0860000029206276,0.08299999684095383
1728651081714047000,5.198046875,0.10300000011920929,-0.09399999678134918,0.12700000405311584
1728651081723652000,5.207652099609375,0.12999999523162842,-0.039000000804662704,0.05700000002980232
1728651081733257200,5.21725732421875,0.14399999380111694,-0.013000000268220901,0.02800000086426735
1728651081742861800,5.22686181640625,0.10400000214576721,-0.012000000104308128,0.027000000700354576
1728651081752466700,5.236466796875,0.14499999582767487,-0.050999999046325684,0.0020000000949949026
1728651081762072000,5.246072021484375,0.2540000081062317,-0.07699999958276749,-0.00800000037997961
1728651081771677200,5.25567724609375,0.22699999809265137,-0.11299999803304672,0.020999999716877937
1728651081781282600,5.265282470703125,0.1599999964237213,-0.09799999743700027,0.061000000685453415
1728651081790887700,5.2748876953125,0.09399999678134918,-0.10499999672174454,0.05700000002980232
1728651081800492800,5.284492919921875,0.20399999618530273,-0.11699999868869781,0.10999999940395355
1728651081810098200,5.29409814453125,0.24699999392032623,-0.1379999965429306,0.10300000011920929
1728651081819703300,5.303703369140625,0.23399999737739563,-0.10999999940395355,0.11500000208616257
1728651081829308400,5.313308349609375,0.1809999942779541,-0.09200000017881393,0.07100000232458115
1728651081838913800,5.322913818359375,0.15399999916553497,-0.03700000047683716,0.04500000178813934
1728651081848519000,5.332518798828125,0.057999998331069946,0.003000000026077032,-0.00800000037997961
1728651081858124300,5.342124267578125,0.0989999994635582,-0.035999998450279236,-0.020999999716877937
1728651081867729400,5.3517294921875,0.15399999916553497,-0.04899999871850014,0.01899999938905239
1728651081877334500,5.36133447265625,0.0729999989271164,-0.03400000184774399,0.05900000035762787
1728651081886940000,5.37093994140625,0.007000000216066837,-0.05700000002980232,0.05400000140070915
1728651081896545000,5.380544921875,0.26499998569488525,-0.08399999886751175,0.06599999964237213
1728651081906150400,5.390150390625,0.3610000014305115,-0.08500000089406967,0.052000001072883606
1728651081915755500,5.399755615234375,0.26499998569488525,-0.07199999690055847,0.009999999776482582
1728651081925361000,5.40936083984375,0.210999995470047,-0.057999998331069946,-0.013000000268220901
1728651081934966000,5.418966064453125,0.04699999839067459,-0.014999999664723873,-0.06700000166893005
1728651081944571400,5.4285712890625,-0.04699999839067459,0.013000000268220901,-0.07500000298023224
1728651081954176500,5.438176513671875,-0.04699999839067459,0.07000000029802322,-0.07400000095367432
1728651081963782000,5.447781982421875,0.01899999938905239,0.05400000140070915,-0.05700000002980232
1728651081973387000,5.457386962890625,0.19599999487400055,0.039000000804662704,-0.029999999329447746
1728651081982992100,5.4669921875,0.3160000145435333,-0.007000000216066837,-0.013000000268220901
1728651081992597500,5.476597412109375,0.2070000022649765,-0.05000000074505806,0.014000000432133675
1728651082002202600,5.48620263671875,0.15199999511241913,-0.03799999877810478,-0.02199999988079071
1728651082011808000,5.49580810546875,0.1509999930858612,0.0010000000474974513,-0.06300000101327896
1728651082021413000,5.5054130859375,0.16300000250339508,-0.0010000000474974513,-0.0689999982714653
1728651082031018500,5.5150185546875,0.10899999737739563,0.012000000104308128,-0.0689999982714653
1728651082040623600,5.52462353515625,-0.05400000140070915,0.027000000700354576,-0.014999999664723873
1728651082050228700,5.534228759765625,-0.06700000166893005,0.0020000000949949026,-0.0020000000949949026
1728651082059834000,5.543834228515625,0.08299999684095383,-0.023000000044703484,0.010999999940395355
1728651082069439200,5.553439208984375,0.27300000190734863,-0.050999999046325684,0.03799999877810478
1728651082079044400,5.56304443359375,0.367000013589859,-0.0560000017285347,0.013000000268220901
1728651082088649700,5.572649658203125,0.25699999928474426,-0.05900000035762787,0.04100000113248825
1728651082098254800,5.5822548828125,0.1340000033378601,-0.04699999839067459,0.04100000113248825
1728651082107860000,5.59185986328125,0.06599999964237213,-0.04800000041723251,0.0689999982714653
1728651082117465300,5.60146533203125,0.11999999731779099,-0.04800000041723251,0.03999999910593033
1728651082127070700,5.61107080078125,0.18799999356269836,-0.03400000184774399,0.03999999910593033
1728651082136675800,5.62067578125,0.2160000056028366,-0.04899999871850014,0.039000000804662704
1728651082146281000,5.630281005859375,0.14800000190734863,-0.06199999898672104,0.02500000037252903
1728651082155886300,5.63988623046875,0.06700000166893005,-0.07100000232458115,0.02199999988079071
1728651082165491500,5.649491455078125,0.1899999976158142,-0.07100000232458115,0.06199999898672104
1728651082175096800,5.659096923828125,0.27300000190734863,-0.11100000143051147,0.09799999743700027
1728651082184702000,5.668701904296875,0.2590000033378601,-0.125,0.09700000286102295
1728651082194307000,5.67830712890625,0.16500000655651093,-0.08299999684095383,0.07800000160932541
1728651082203912400,5.687912353515625,0.20600000023841858,-0.05700000002980232,0.06599999964237213
1728651082213517600,5.697517578125,0.21899999678134918,-0.03200000151991844,0.050999999046325684
1728651082223123000,5.707123046875,0.164000004529953,-0.03200000151991844,0.052000001072883606
1728651082232728000,5.71672802734375,0.23199999332427979,-0.05999999865889549,0.039000000804662704
1728651082242333200,5.726333251953125,0.16300000250339508,-0.05999999865889549,0.013000000268220901
1728651082251938600,5.7359384765625,0.041999999433755875,-0.03099999949336052,0.03700000047683716
1728651082261543700,5.745543701171875,0.0560000017285347,-0.003000000026077032,0.07699999958276749
1728651082271149000,5.755149169921875,0.2460000067949295,0.004000000189989805,0.09799999743700027
1728651082280754200,5.764754150390625,0.36800000071525574,-0.010999999940395355,0.08299999684095383
1728651082290359600,5.774359619140625,0.3400000035762787,-0.0689999982714653,0.09200000017881393
1728651082299964700,5.783964599609375,0.20399999618530273,-0.04399999976158142,0.024000000208616257
1728651082309570000,5.793570068359375,0.12099999934434891,0.03200000151991844,-0.0010000000474974513
1728651082319175200,5.803175048828125,0.13500000536441803,0.01899999938905239,0.009999999776482582
1728651082328780300,5.8127802734375,0.16099999845027924,0.003000000026077032,0.009999999776482582
1728651082338385700,5.8223857421875,0.32499998807907104,-0.03700000047683716,0.008999999612569809
1728651082347991000,5.831990966796875,0.3240000009536743,-0.03999999910593033,0.03700000047683716
1728651082357596200,5.84159619140625,0.2280000001192093,-0.054999999701976776,0.023000000044703484
1728651082367201300,5.851201171875,0.2540000081062317,-0.03099999949336052,0.012000000104308128
1728651082376806700,5.860806640625,0.22699999809265137,-0.03200000151991844,0.027000000700354576
1728651082386411800,5.870411865234375,0.12999999523162842,-0.00800000037997961,0.013000000268220901
1728651082396017200,5.88001708984375,0.17100000381469727,-0.023000000044703484,0.013000000268220901
1728651082405622300,5.889622314453125,0.23800000548362732,-0.052000001072883606,0.0010000000474974513
1728651082415227600,5.8992275390625,0.18400000035762787,-0.02500000037252903,0
1728651082424832800,5.908832763671875,0.15600000321865082,0.010999999940395355,0.02500000037252903
1728651082434438100,5.918438232421875,0.15600000321865082,-0.003000000026077032,0.07800000160932541
1728651082444043300,5.928043212890625,0.25,-0.00800000037997961,0.07500000298023224
1728651082453648600,5.937648681640625,0.29100000858306885,-0.035999998450279236,0.07599999755620956
1728651082463253800,5.947253662109375,0.25,-0.06400000303983688,0.05999999865889549
1728651082472859100,5.956859130859375,0.19599999487400055,-0.06400000303983688,0.03099999949336052
1728651082482464500,5.966464599609375,0.1550000011920929,-0.035999998450279236,0.003000000026077032
1728651082492069600,5.976069580078125,0.11500000208616257,-0.020999999716877937,0.0430000014603138
1728651082501674800,5.9856748046875,0.08900000154972076,-0.019999999552965164,0.052000001072883606
1728651082511280000,5.995280029296875,0.17100000381469727,-0.032999999821186066,0.06300000101327896
1728651082520885500,6.004885498046875,0.2800000011920929,-0.04899999871850014,0.032999999821186066
1728651082530490600,6.01449072265625,0.3070000112056732,-0.09099999815225601,0.004000000189989805
1728651082540095700,6.024095703125,0.3059999942779541,-0.09200000017881393,-0.006000000052154064
1728651082549701000,6.033701171875,0.23800000548362732,-0.06599999964237213,0.006000000052154064
1728651082559306200,6.04330615234375,0.19699999690055847,-0.06599999964237213,0.00800000037997961
1728651082568911600,6.05291162109375,0.210999995470047,-0.052000001072883606,0.020999999716877937
1728651082578516700,6.062516845703125,0.04699999839067459,-0.009999999776482582,0.00800000037997961
1728651082588122000,6.0721220703125,0.03400000184774399,0.004000000189989805,0.04800000041723251
1728651082597727200,6.081727294921875,0.210999995470047,-0.024000000208616257,0.05900000035762787
1728651082607332600,6.09133251953125,0.33399999141693115,-0.03700000047683716,0.07199999690055847
1728651082616937700,6.100937744140625,0.3199999928474426,-0.05299999937415123,0.05700000002980232
1728651082626543000,6.110543212890625,0.12999999523162842,-0.039000000804662704,-0.013000000268220901
1728651082636148200,6.120148193359375,0.04899999871850014,-0.009999999776482582,0.06199999898672104
1728651082645753300,6.12975341796875,0.1589999943971634,-0.008999999612569809,0.1289999932050705
1728651082655358700,6.139358642578125,0.20000000298023224,0.013000000268220901,0.0820000022649765
1728651082664963800,6.1489638671875,0.2409999966621399,-0.013000000268220901,0.02500000037252903
1728651082674569200,6.1585693359375,0.21400000154972076,-0.05299999937415123,-0.013000000268220901
1728651082684174300,6.16817431640625,0.21400000154972076,-0.039000000804662704,-0.013000000268220901
1728651082693779700,6.17777978515625,0.10499999672174454,-0.024000000208616257,-0.012000000104308128
1728651082703385000,6.187385009765625,0.03799999877810478,-0.03500000014901161,0.013000000268220901
1728651082712990200,6.196990234375,0.2290000021457672,-0.061000000685453415,0.050999999046325684
1728651082722595600,6.206595703125,0.25699999928474426,-0.08699999749660492,0.04899999871850014
1728651082732200700,6.21620068359375,0.12300000339746475,-0.0820000022649765,0.01899999938905239
1728651082741806000,6.22580615234375,0.12300000339746475,-0.07999999821186066,0.03099999949336052
1728651082751411200,6.2354111328125,0.1120000034570694,-0.07599999755620956,0.03999999910593033
1728651082761016600,6.2450166015625,0.15299999713897705,-0.03400000184774399,0.023000000044703484
1728651082770622000,6.2546220703125,0.31700000166893005,-0.08799999952316284,0.02199999988079071
1728651082780227000,6.26422705078125,0.3440000116825104,-0.15700000524520874,0.01899999938905239
1728651082789832200,6.273832275390625,0.19499999284744263,-0.11299999803304672,-0.006000000052154064
1728651082799437600,6.2834375,0.14100000262260437,-0.0989999994635582,-0.01899999938905239
1728651082809042700,6.293042724609375,0.0989999994635582,-0.017000000923871994,-0.0430000014603138
1728651082818648000,6.30264794921875,0.0729999989271164,0.023000000044703484,-0.03099999949336052
1728651082828253200,6.312253173828125,0.11400000005960464,-0.017000000923871994,-0.004000000189989805
1728651082837858600,6.321858642578125,0.05999999865889549,-0.014999999664723873,-0.007000000216066837
1728651082847463700,6.331463623046875,0.11500000208616257,-0.027000000700354576,-0.02199999988079071
1728651082857069000,6.341069091796875,0.14300000667572021,0,-0.10599999874830246
1728651082866674400,6.35067431640625,0.289000004529953,0.04500000178813934,-0.08500000089406967
1728651082876279600,6.360279541015625,0.18000000715255737,0.017999999225139618,-0.08699999749660492
1728651082885885000,6.369885009765625,0.15199999511241913,0.0010000000474974513,-0.0430000014603138
1728651082895490000,6.379489990234375,0.09700000286102295,-0.026000000536441803,-0.0430000014603138
1728651082905095200,6.38909521484375,0.15000000596046448,-0.0020000000949949026,-0.027000000700354576
1728651082914700500,6.398700439453125,0.21799999475479126,0.009999999776482582,-0.06800000369548798
1728651082924305700,6.4083056640625,0.20200000703334808,-0.007000000216066837,-0.07500000298023224
1728651082933911000,6.4179111328125,0.12099999934434891,-0.00800000037997961,-0.10199999809265137
1728651082943516200,6.42751611328125,-0.0560000017285347,0.032999999821186066,-0.1080000028014183
1728651082953121500,6.43712158203125,-0.08299999684095383,0.11699999868869781,-0.13699999451637268
1728651082962727000,6.446726806640625,-0.003000000026077032,0.10000000149011612,-0.14399999380111694
1728651082972332300,6.456332275390625,0.07900000363588333,0.04800000041723251,-0.12200000137090683
1728651082981937400,6.4659375,0.1599999964237213,-0.017999999225139618,-0.11699999868869781
1728651082991542500,6.47554248046875,0.14800000190734863,-0.003000000026077032,-0.1340000033378601
1728651083001148000,6.48514794921875,0.1720000058412552,0.032999999821186066,-0.1379999965429306
1728651083010753000,6.4947529296875,0.2409999966621399,0.01899999938905239,-0.0989999994635582
1728651083020358400,6.5043583984375,0.3059999942779541,0,-0.050999999046325684
1728651083029963500,6.513963623046875,0.27799999713897705,-0.05700000002980232,-0.05000000074505806
1728651083039569000,6.52356884765625,0.22100000083446503,-0.04600000008940697,-0.10499999672174454
1728651083049174000,6.533174072265625,0.029999999329447746,-0.006000000052154064,-0.12999999523162842
1728651083058779400,6.542779296875,-0.012000000104308128,0.006000000052154064,-0.10700000077486038
1728651083068384500,6.552384521484375,0.014000000432133675,0.006000000052154064,-0.09300000220537186
1728651083077990000,6.561989990234375,0.0010000000474974513,-0.01899999938905239,-0.06199999898672104
1728651083087595300,6.57159521484375,0.02800000086426735,-0.032999999821186066,-0.02199999988079071
1728651083097200400,6.581200439453125,0.1770000010728836,-0.020999999716877937,-0.03200000151991844
1728651083106805800,6.5908056640625,0.2720000147819519,-0.035999998450279236,-0.006000000052154064
1728651083116411000,6.600410888671875,0.21699999272823334,-0.06300000101327896,-0.017000000923871994
1728651083126016300,6.610016357421875,0.20399999618530273,-0.02199999988079071,-0.03200000151991844
1728651083135621400,6.619621337890625,0.13500000536441803,0.01600000075995922,-0.054999999701976776
1728651083145226800,6.629226806640625,-0.014000000432133675,0.07199999690055847,-0.0689999982714653
1728651083154832000,6.638831787109375,-0.028999999165534973,0.09700000286102295,-0.07699999958276749
1728651083164437200,6.648437255859375,0.052000001072883606,0.07100000232458115,-0.06300000101327896
1728651083174042400,6.65804248046875,0.17299999296665192,0.06499999761581421,-0.03200000151991844
1728651083183647700,6.667647705078125,0.20000000298023224,0.06599999964237213,0.007000000216066837
1728651083193252900,6.6772529296875,0.26600000262260437,0.04399999976158142,0.03400000184774399
1728651083202858200,6.686858154296875,0.25200000405311584,0.0020000000949949026,0.0729999989271164
1728651083212463600,6.696463623046875,0.15700000524520874,-0.014000000432133675,0.08100000023841858
1728651083222068700,6.70606884765625,0.1979999989271164,-0.028999999165534973,0.06599999964237213
1728651083231674000,6.715674072265625,0.23800000548362732,-0.017999999225139618,-0.013000000268220901
1728651083241279200,6.725279296875,0.15600000321865082,0.00800000037997961,-0.05400000140070915
1728651083250884600,6.734884521484375,0.05900000035762787,0.019999999552965164,-0.08799999952316284
1728651083260489700,6.74448974609375,0.05999999865889549,0.03500000014901161,-0.10199999809265137
1728651083270095000,6.75409521484375,0.03099999949336052,0.032999999821186066,-0.05700000002980232
1728651083279700200,6.7637001953125,0.14100000262260437,0.04600000008940697,-0.03200000151991844
1728651083289305600,6.7733056640625,0.4790000021457672,-0.054999999701976776,0.023000000044703484
1728651083298910700,6.78291064453125,0.43799999356269836,-0.13899999856948853,0.06300000101327896
1728651083308516000,6.79251611328125,0.3149999976158142,-0.1379999965429306,0.05000000074505806
1728651083318121500,6.80212158203125,0.27399998903274536,-0.0989999994635582,-0.01600000075995922
1728651083327726600,6.8117265625,0.15000000596046448,-0.03200000151991844,-0.08900000154972076
1728651083337332000,6.82133203125,0.0949999988079071,-0.004000000189989805,-0.12999999523162842
1728651083346937000,6.83093701171875,0.06700000166893005,0.00800000037997961,-0.12099999934434891
1728651083356542500,6.84054248046875,0.027000000700354576,0.009999999776482582,-0.09399999678134918
1728651083366147600,6.850147705078125,0.1340000033378601,0.02199999988079071,-0.10000000149011612
1728651083375753000,6.8597529296875,0.2840000092983246,0.04899999871850014,-0.061000000685453415
1728651083385358300,6.8693583984375,0.28200000524520874,0.028999999165534973,-0.05700000002980232
1728651083394963500,6.87896337890625,0.2680000066757202,0,-0.04399999976158142
1728651083404568800,6.88856884765625,0.14399999380111694,0.024000000208616257,-0.029999999329447746
1728651083414174000,6.898174072265625,0.13099999725818634,0.07900000363588333,0.02199999988079071
1728651083423779300,6.907779296875,0.1979999989271164,0.07100000232458115,0.01899999938905239
1728651083433384400,6.917384521484375,0.3610000014305115,0.057999998331069946,0.017000000923871994
1728651083442989800,6.92698974609375,0.414000004529953,-0.014999999664723873,0.004999999888241291
1728651083452595000,6.936594970703125,0.34599998593330383,-0.05700000002980232,-0.035999998450279236
1728651083462200300,6.946200439453125,0.15399999916553497,-0.017999999225139618,-0.07000000029802322
1728651083471805700,6.9558056640625,0.14000000059604645,0.00800000037997961,-0.10899999737739563
1728651083481410800,6.965410888671875,0.10999999940395355,0.0430000014603138,-0.08799999952316284
1728651083491016200,6.97501611328125,0.09600000083446503,0.0560000017285347,0.020999999716877937
1728651083500621300,6.984621337890625,0.0949999988079071,-0.010999999940395355,-0.07999999821186066
1728651083510226700,6.994226806640625,0.06800000369548798,-0.03799999877810478,0.027000000700354576
1728651083519831800,7.003831787109375,0.2720000147819519,-0.06599999964237213,0.02800000086426735
1728651083529437200,7.013437255859375,0.4350000023841858,-0.1080000028014183,-0.012000000104308128
1728651083539042600,7.02304248046875,0.3930000066757202,-0.1340000033378601,-0.057999998331069946
1728651083548648000,7.03264794921875,0.24300000071525574,-0.12099999934434891,-0.014999999664723873
1728651083558253000,7.042253173828125,0.013000000268220901,-0.08799999952316284,-0.012000000104308128
1728651083567858400,7.0518583984375,-0.0949999988079071,-0.032999999821186066,0.0020000000949949026
1728651083577463600,7.061463623046875,0.06800000369548798,-0.03099999949336052,0.03999999910593033
1728651083587069000,7.07106884765625,0.06800000369548798,-0.029999999329447746,0.1080000028014183
1728651083596674000,7.080674072265625,0.12300000339746475,-0.004000000189989805,0.10199999809265137
1728651083606279400,7.090279541015625,0.19099999964237213,0.00800000037997961,0.08799999952316284
1728651083615884800,7.099884765625,0.2720000147819519,-0.02199999988079071,0.04699999839067459
1728651083625490000,7.109489990234375,0.23100000619888306,-0.05000000074505806,0.032999999821186066
1728651083635095300,7.11909521484375,0.08100000023841858,-0.035999998450279236,0.007000000216066837
1728651083644700700,7.12870068359375,0.013000000268220901,-0.00800000037997961,-0.004999999888241291
1728651083654305800,7.138305908203125,-0.013000000268220901,0.01899999938905239,-0.004999999888241291
1728651083663911000,7.147910888671875,0.0820000022649765,0.007000000216066837,0.00800000037997961
1728651083673516300,7.157516357421875,0.15000000596046448,-0.032999999821186066,0.020999999716877937
1728651083683121400,7.167121337890625,0.21799999475479126,-0.061000000685453415,0.03400000184774399
1728651083692726800,7.176726806640625,0.12300000339746475,-0.020999999716877937,0.006000000052154064
1728651083702332200,7.186332275390625,0.12300000339746475,-0.03500000014901161,-0.008999999612569809
1728651083711937500,7.1959375,0.10899999737739563,-0.04800000041723251,-0.00800000037997961
1728651083721542700,7.205542724609375,0.164000004529953,-0.04800000041723251,-0.06300000101327896
1728651083731148000,7.21514794921875,0.14800000190734863,-0.00800000037997961,-0.13300000131130219
1728651083740753200,7.224753173828125,0.039000000804662704,0.05999999865889549,-0.13300000131130219
1728651083750358500,7.234358642578125,-0.0020000000949949026,0.05700000002980232,-0.0989999994635582
1728651083759963600,7.243963623046875,-0.041999999433755875,0.05900000035762787,-0.05900000035762787
1728651083769569000,7.253569091796875,-0.0689999982714653,0.032999999821186066,-0.03200000151991844
1728651083779174100,7.263174072265625,-0.04100000113248825,0.03500000014901161,-0.006000000052154064
1728651083788779500,7.272779541015625,0.03799999877810478,0.09600000083446503,-0.019999999552965164
1728651083798385000,7.282385009765625,0.17399999499320984,0.05400000140070915,-0.00800000037997961
1728651083807990000,7.291989990234375,0.23999999463558197,-0.004999999888241291,-0.006000000052154064
1728651083817595400,7.301595458984375,0.10400000214576721,0.007000000216066837,-0.04699999839067459
1728651083827200500,7.311200439453125,0.07500000298023224,0.004999999888241291,-0.06700000166893005
1728651083836806000,7.320805908203125,0.10199999809265137,0.04500000178813934,-0.08100000023841858
1728651083846411000,7.330410888671875,-0.03400000184774399,0.03099999949336052,-0.08900000154972076
1728651083856016400,7.340016357421875,-0.08799999952316284,-0.007000000216066837,-0.07500000298023224
1728651083865621800,7.349621826171875,-0.020999999716877937,0.032999999821186066,-0.09600000083446503
1728651083875227000,7.359226806640625,0.08699999749660492,0.032999999821186066,-0.06800000369548798
1728651083884832300,7.368832275390625,0.15399999916553497,0.02800000086426735,-0.06300000101327896
1728651083894437400,7.378437255859375,0.1940000057220459,-0.05400000140070915,-0.008999999612569809
1728651083904042800,7.388042724609375,0.057999998331069946,-0.05299999937415123,-0.007000000216066837
1728651083913648000,7.397648193359375,-0.13199999928474426,0.0010000000474974513,0.006000000052154064
1728651083923253200,7.407253173828125,-0.22699999809265137,0.07000000029802322,0.003000000026077032
1728651083932858600,7.416858642578125,-0.09000000357627869,0.07100000232458115,0.0010000000474974513
1728651083942463700,7.426463623046875,0.07199999690055847,0.02800000086426735,0
1728651083952069000,7.436069091796875,0.14100000262260437,-0.039000000804662704,0.013000000268220901
1728651083961674200,7.44567431640625,0.0989999994635582,-0.03799999877810478,-0.03500000014901161
1728651083971279600,7.455279541015625,0.12600000202655792,-0.02500000037252903,-0.019999999552965164
1728651083980884700,7.464884765625,0.07100000232458115,-0.013000000268220901,-0.004999999888241291
1728651083990490000,7.474489990234375,-0.023000000044703484,0.04100000113248825,0.007000000216066837
1728651084000095500,7.484095458984375,-0.07699999958276749,0.052000001072883606,0.054999999701976776
1728651084009700900,7.493700927734375,-0.14499999582767487,0.08100000023841858,0.09399999678134918
1728651084019306000,7.503305908203125,-0.020999999716877937,0.039000000804662704,0.07199999690055847
1728651084028911400,7.512911376953125,0.14100000262260437,-0.0010000000474974513,0.01600000075995922
1728651084038516500,7.5225166015625,0.20800000429153442,-0.004000000189989805,-0.03500000014901161
1728651084048121900,7.532121826171875,0.14000000059604645,0.008999999612569809,-0.07599999755620956
1728651084057727000,7.54172705078125,0.08500000089406967,-0.0430000014603138,-0.07000000029802322
1728651084067332400,7.551332275390625,0.04500000178813934,-0.014999999664723873,0.010999999940395355
1728651084076937700,7.560937744140625,-0.020999999716877937,-0.03799999877810478,-0.003000000026077032
1728651084086542800,7.57054296875,-0.03400000184774399,-0.050999999046325684,0.09099999815225601
1728651084096148200,7.580148193359375,-0.004999999888241291,-0.05900000035762787,0.07100000232458115
1728651084105753600,7.589753662109375,0.12999999523162842,-0.04600000008940697,0.11100000143051147
1728651084115358700,7.599358642578125,0.23899999260902405,-0.04800000041723251,0.003000000026077032
1728651084124963800,7.6089638671875,0.23800000548362732,-0.04899999871850014,0.029999999329447746
1728651084134569200,7.6185693359375,0.06199999898672104,-0.04699999839067459,0.01600000075995922
1728651084144174300,7.62817431640625,0.07599999755620956,-0.04600000008940697,0.02800000086426735
1728651084153779700,7.63777978515625,-0.004000000189989805,-0.0020000000949949026,-0.026000000536441803
1728651084163385000,7.647385009765625,0.023000000044703484,0.027000000700354576,0.024000000208616257
1728651084172990200,7.656990234375,0.07800000160932541,0.052000001072883606,0.03099999949336052
1728651084182595600,7.666595703125,0.2290000021457672,0.06700000166893005,0.04100000113248825
1728651084192201000,7.676200927734375,0.28299999237060547,-0.004000000189989805,0.05000000074505806
1728651084201806000,7.68580615234375,0.2840000092983246,-0.017000000923871994,0.017999999225139618
1728651084211411500,7.695411376953125,0.1889999955892563,-0.04399999976158142,0.026000000536441803
1728651084221016600,7.7050166015625,0.0820000022649765,0.012000000104308128,0.019999999552965164
1728651084230622000,7.7146220703125,0.17599999904632568,0.07400000095367432,0.0020000000949949026
1728651084240227300,7.724227294921875,0.3540000021457672,0.03400000184774399,-0.0020000000949949026
1728651084249832400,7.73383251953125,0.257999986410141,0.004000000189989805,-0.029999999329447746
1728651084259437800,7.743437744140625,0.10999999940395355,0.019999999552965164,-0.04800000041723251
1728651084269043000,7.75304296875,0.16300000250339508,0.04399999976158142,-0.0729999989271164
1728651084278648300,7.7626484375,0.27300000190734863,-0.008999999612569809,-0.06300000101327896
1728651084288253400,7.77225341796875,0.29899999499320984,0,-0.03400000184774399
1728651084297858800,7.78185888671875,0.3400000035762787,-0.014999999664723873,0.017000000923871994
1728651084307464000,7.7914638671875,0.36500000953674316,-0.04600000008940697,-0.032999999821186066
1728651084317069300,7.8010693359375,0.1889999955892563,-0.032999999821186066,-0.035999998450279236
1728651084326674700,7.8106748046875,0.20200000703334808,-0.032999999821186066,-0.04699999839067459
1728651084336279800,7.82027978515625,0.2840000092983246,-0.01899999938905239,-0.09000000357627869
1728651084345885200,7.82988525390625,0.2409999966621399,0.017000000923871994,-0.12300000339746475
1728651084355490300,7.839490234375,0.09200000017881393,0.05900000035762787,-0.1379999965429306
1728651084365095700,7.849095703125,0.11699999868869781,0.06800000369548798,-0.07999999821186066
1728651084374700800,7.85870068359375,0.22599999606609344,0.013000000268220901,-0.0689999982714653
1728651084384306200,7.86830615234375,0.3330000042915344,-0.004999999888241291,-0.04899999871850014
1728651084393911600,7.87791162109375,0.2919999957084656,0.006000000052154064,-0.00800000037997961
1728651084403516700,7.8875166015625,0.20800000429153442,0.026000000536441803,0.03200000151991844
1728651084413122000,7.8971220703125,0.14000000059604645,0.07900000363588333,0.03400000184774399
1728651084422727200,7.90672705078125,0.10999999940395355,0.10899999737739563,0.057999998331069946
1728651084432332500,7.91633251953125,0.0689999982714653,0.0820000022649765,0.04399999976158142
1728651084441937700,7.925937744140625,0.19099999964237213,0.009999999776482582,0.04100000113248825
1728651084451543000,7.93554296875,0.30000001192092896,-0.017000000923871994,0.0010000000474974513
1728651084461148400,7.9451484375,0.257999986410141,-0.019999999552965164,-0.032999999821186066
1728651084470753500,7.95475341796875,0.16200000047683716,0.006000000052154064,-0.04600000008940697
1728651084480359000,7.96435888671875,0.010999999940395355,0.03200000151991844,-0.0689999982714653
1728651084489964000,7.973964111328125,0.039000000804662704,0.05999999865889549,-0.04399999976158142
1728651084499569400,7.9835693359375,0.27000001072883606,-0.03700000047683716,-0.02800000086426735
1728651084509174500,7.993174560546875,0.28299999237060547,-0.039000000804662704,-0.028999999165534973
1728651084518780000,8.00277978515625,0.22699999809265137,-0.041999999433755875,-0.02500000037252903
1728651084528385000,8.012385009765625,0.22599999606609344,-0.029999999329447746,-0.06199999898672104
1728651084537990400,8.021990478515624,0.14300000667572021,-0.04399999976158142,-0.05299999937415123
1728651084547595800,8.031595703125,0.03400000184774399,0.023000000044703484,-0.09099999815225601
1728651084557201200,8.041201171875,0.03200000151991844,0.03400000184774399,-0.07100000232458115
1728651084566806300,8.05080615234375,0.10100000351667404,-0.03200000151991844,-0.07100000232458115
1728651084576411600,8.06041162109375,0.004999999888241291,-0.01600000075995922,-0.07800000160932541
1728651084586016800,8.070016845703124,-0.03500000014901161,0.06599999964237213,-0.06400000303983688
1728651084595622100,8.0796220703125,-0.035999998450279236,0.07699999958276749,-0.020999999716877937
1728651084605227300,8.089227294921875,-0.14399999380111694,0.06499999761581421,-0.06199999898672104
1728651084614832600,8.09883251953125,0.003000000026077032,0.10000000149011612,-0.01899999938905239
1728651084624438000,8.10843798828125,0.07100000232458115,0.05900000035762787,0.05999999865889549
1728651084634043100,8.118043212890624,0.004000000189989805,0.04399999976158142,0.06800000369548798
1728651084643648500,8.1276484375,-0.035999998450279236,0.017000000923871994,0.054999999701976776
1728651084653253600,8.137253662109375,0.125,0.014000000432133675,-0.019999999552965164
1728651084662859000,8.14685888671875,0.21899999678134918,0.012000000104308128,-0.0689999982714653
1728651084672464100,8.156464111328125,0.07999999821186066,-0.017000000923871994,-0.0560000017285347
1728651084682069500,8.166069580078124,-0.0430000014603138,-0.06199999898672104,-0.00800000037997961
1728651084691675000,8.1756748046875,0.035999998450279236,-0.06300000101327896,0.03799999877810478
1728651084701280000,8.185280029296875,0.11599999666213989,-0.0820000022649765,0.10100000351667404
1728651084710885400,8.194885498046874,-0.04600000008940697,-0.07999999821186066,0.13699999451637268
1728651084720490500,8.204490478515625,-0.2370000034570694,-0.12200000137090683,0.11400000005960464
1728651084730095900,8.214095947265625,-0.22100000083446503,-0.0729999989271164,0.11900000274181366
1728651084739701200,8.223701171875,-0.3160000145435333,-0.12600000202655792,-0.014999999664723873
1728651084749306400,8.233306396484375,-0.164000004529953,-0.06199999898672104,0.010999999940395355
1728651084758911700,8.242911865234374,0.24300000071525574,-0.07800000160932541,0.0430000014603138
1728651084768516900,8.252516845703125,0.1599999964237213,-0.10000000149011612,-0.15800000727176666
1728651084778122200,8.262122314453125,-0.3709999918937683,-0.017999999225139618,-0.1379999965429306
1728651084787727400,8.271727294921876,-0.08399999886751175,-0.05400000140070915,0.029999999329447746
1728651084797332700,8.281332763671875,0.10400000214576721,-0.05700000002980232,0.06599999964237213
1728651084806938000,8.290938232421874,0.04800000041723251,-0.007000000216066837,0.10599999874830246
1728651084816543200,8.300543212890625,-0.19699999690055847,-0.06300000101327896,0.10899999737739563
1728651084826148600,8.310148681640625,-0.36800000071525574,-0.12800000607967377,0.13500000536441803
1728651084835753700,8.319753662109376,-0.24400000274181366,-0.09799999743700027,0.03500000014901161
1728651084845359000,8.329359130859375,-0.1720000058412552,-0.020999999716877937,0.03799999877810478
1728651084854964500,8.338964599609374,-0.25099998712539673,0.02500000037252903,0.014999999664723873
1728651084864569900,8.34856982421875,-0.0729999989271164,0.0820000022649765,-0.0560000017285347
1728651084874175000,8.358175048828125,0.3490000069141388,0.0430000014603138,-0.10000000149011612
1728651084883780400,8.3677802734375,0.5239999890327454,-0.01899999938905239,-0.014000000432133675
1728651084893385500,8.377385498046875,0.08799999952316284,0.04899999871850014,0.06300000101327896
1728651084902990600,8.386990478515624,-0.07199999690055847,0.008999999612569809,0.07599999755620956
1728651084912596000,8.396595947265626,0.28200000524520874,-0.14000000059604645,0.16200000047683716
1728651084922201300,8.406201416015625,0.746999979019165,-0.20900000631809235,0.13899999856948853
1728651084931806700,8.415806640625,0.746999979019165,-0.22499999403953552,0.09300000220537186
1728651084941411800,8.425411865234375,0.08100000023841858,-0.1080000028014183,-0.09399999678134918
1728651084951017200,8.435017333984375,-0.5960000157356262,0.00800000037997961,-0.37299999594688416
1728651084960622300,8.444622314453126,-0.675000011920929,0.13099999725818634,-0.26100000739097595
1728651084970227700,8.454227783203125,-0.15199999511241913,0.10100000351667404,-0.3050000071525574
1728651084979833000,8.4638330078125,0.6679999828338623,0.25200000405311584,-0.2709999978542328
1728651084989438200,8.473438232421875,1.1299999952316284,-0.1340000033378601,0.09600000083446503
1728651084999043600,8.483043701171875,0.32600000500679016,-0.12099999934434891,0.04399999976158142
1728651085008648700,8.492648681640626,0.18799999356269836,-0.20600000023841858,0.09099999815225601
1728651085018254000,8.502254150390625,0.1899999976158142,-0.15700000524520874,0.05000000074505806
1728651085027859200,8.511859130859374,0.23100000619888306,-0.08900000154972076,-0.12700000405311584
1728651085037464600,8.521464599609375,0.3930000066757202,-0.11400000005960464,-0.12800000607967377
1728651085047070000,8.531070068359375,0.2980000078678131,-0.04600000008940697,-0.14100000262260437
1728651085056675300,8.54067529296875,0.18700000643730164,-0.020999999716877937,-0.09000000357627869
1728651085066280400,8.550280517578125,0.22699999809265137,-0.03500000014901161,-0.020999999716877937
1728651085075885800,8.5598857421875,0.3070000112056732,-0.03799999877810478,-0.11900000274181366
1728651085085491000,8.569490966796875,0.3610000014305115,0.014000000432133675,-0.03700000047683716
1728651085095096300,8.579096435546875,0.3449999988079071,0.019999999552965164,-0.03500000014901161
1728651085104701700,8.58870166015625,0.4269999861717224,0.01899999938905239,0.03099999949336052
1728651085114306800,8.598306884765625,0.49300000071525574,-0.003000000026077032,0.03200000151991844
1728651085123912200,8.607912109375,0.32899999618530273,0.008999999612569809,-0.035999998450279236
1728651085133517600,8.617517578125,0.12300000339746475,0.04600000008940697,-0.0949999988079071
1728651085143122700,8.627122802734375,0.23199999332427979,0.06199999898672104,-0.14900000393390656
1728651085152728000,8.63672802734375,0.18799999356269836,0.07000000029802322,-0.23999999463558197
1728651085162333200,8.646333251953125,0.052000001072883606,0.10100000351667404,-0.1860000044107437
1728651085171938600,8.6559384765625,0.024000000208616257,0.08500000089406967,-0.12600000202655792
1728651085181544000,8.6655439453125,0.32499998807907104,-0.00800000037997961,-0.035999998450279236
1728651085191149000,8.675149169921875,0.5849999785423279,-0.1940000057220459,0.029999999329447746
1728651085200754400,8.68475439453125,0.3269999921321869,-0.21899999678134918,-0.0010000000474974513
1728651085210359600,8.694359619140625,-0.009999999776482582,-0.0989999994635582,-0.054999999701976776
1728651085219964700,8.703964599609375,0.12700000405311584,-0.013000000268220901,-0.0989999994635582
1728651085229570000,8.713570068359376,0.23399999737739563,0.08900000154972076,-0.0689999982714653
1728651085239175400,8.723175537109375,0.3569999933242798,0.05000000074505806,-0.04600000008940697
1728651085248780500,8.732780517578124,0.24799999594688416,0.006000000052154064,0.04399999976158142
1728651085258386000,8.742385986328125,0.14000000059604645,-0.10100000351667404,0.029999999329447746
1728651085267991300,8.7519912109375,0.22200000286102295,-0.10999999940395355,-0.01899999938905239
1728651085277596400,8.761596435546876,0.04500000178813934,0.039000000804662704,0.00800000037997961
1728651085287201800,8.771201904296875,-0.10599999874830246,0.14100000262260437,0.007000000216066837
1728651085296807200,8.78080712890625,-0.03700000047683716,0.18299999833106995,-0.020999999716877937
1728651085306412500,8.79041259765625,0.1379999965429306,0.11800000071525574,0.07999999821186066
1728651085316017700,8.800017578125,0.20600000023841858,-0.07199999690055847,0.10599999874830246
1728651085325623000,8.809623046875,0.09799999743700027,-0.10700000077486038,0.07599999755620956
1728651085335228200,8.819228271484375,0.1120000034570694,-0.07900000363588333,-0.0020000000949949026
1728651085344833500,8.82883349609375,0.16599999368190765,-0.05000000074505806,-0.04800000041723251
1728651085354439000,8.83843896484375,0.15199999511241913,-0.008999999612569809,-0.0729999989271164
1728651085364044000,8.8480439453125,0.041999999433755875,-0.02199999988079071,-0.04100000113248825
1728651085373649400,8.8576494140625,-0.052000001072883606,-0.06300000101327896,0.02800000086426735
1728651085383254800,8.8672548828125,-0.05000000074505806,-0.08399999886751175,0.07800000160932541
1728651085392860000,8.87685986328125,-0.024000000208616257,-0.12600000202655792,0.0949999988079071
1728651085402465300,8.88646533203125,0.017999999225139618,-0.0949999988079071,0.09099999815225601
1728651085412070700,8.896070556640625,0.07100000232458115,-0.0689999982714653,0.03999999910593033
1728651085421675800,8.90567578125,-0.007000000216066837,-0.07800000160932541,0.07500000298023224
1728651085431281200,8.91528125,-0.11599999666213989,-0.10400000214576721,0.07400000095367432
1728651085440886300,8.92488623046875,-0.08500000089406967,-0.10700000077486038,0.05299999937415123
1728651085450491600,8.93449169921875,-0.125,-0.13199999928474426,0.00800000037997961
1728651085460097000,8.944096923828125,-0.05400000140070915,-0.0949999988079071,-0.01899999938905239
1728651085469702100,8.9537021484375,-0.06700000166893005,-0.012000000104308128,-0.032999999821186066
1728651085479307500,8.9633076171875,-0.1080000028014183,0.0430000014603138,-0.03099999949336052
1728651085488913000,8.972912841796875,-0.06700000166893005,0.08500000089406967,-0.017000000923871994
1728651085498518000,8.98251806640625,-0.03999999910593033,0.06800000369548798,0.03400000184774399
1728651085508123400,8.992123291015625,-0.06800000369548798,0.027000000700354576,0.07500000298023224
1728651085517728800,9.001728759765625,-0.013000000268220901,0,0.09700000286102295
1728651085527334000,9.011333984375,0.06700000166893005,-0.01600000075995922,0.0860000029206276
1728651085536939300,9.020939208984375,0.10599999874830246,0.017999999225139618,0.04600000008940697
1728651085546544600,9.030544677734374,0.009999999776482582,0.028999999165534973,-0.017000000923871994
1728651085556149800,9.040149658203125,-0.1120000034570694,0.014999999664723873,-0.02800000086426735
1728651085565755100,9.049755126953125,-0.18000000715255737,0.0020000000949949026,-0.027000000700354576
1728651085575360500,9.059360595703126,-0.13899999856948853,0.004999999888241291,-0.07900000363588333
1728651085584966000,9.0689658203125,-0.029999999329447746,0.006000000052154064,-0.052000001072883606
1728651085594571000,9.078571044921874,-0.0560000017285347,-0.004000000189989805,-0.050999999046325684
1728651085604176400,9.08817626953125,-0.09700000286102295,0.024000000208616257,-0.026000000536441803
1728651085613781500,9.097781494140625,0.010999999940395355,-0.0020000000949949026,-0.026000000536441803
1728651085623387000,9.107386962890626,0.052000001072883606,0.009999999776482582,-0.013000000268220901
1728651085632992300,9.1169921875,-0.07000000029802322,0.023000000044703484,-0.03799999877810478
1728651085642597600,9.12659765625,-0.10999999940395355,0.050999999046325684,-0.06599999964237213
1728651085652202800,9.13620263671875,0.13300000131130219,-0.017000000923871994,-0.061000000685453415
1728651085661808000,9.14580810546875,-0.01600000075995922,-0.029999999329447746,-0.07599999755620956
1728651085671413500,9.15541357421875,-0.11100000143051147,-0.012000000104308128,-0.12300000339746475
1728651085681018600,9.1650185546875,-0.0560000017285347,0.0020000000949949026,-0.12300000339746475
1728651085690624000,9.1746240234375,0.009999999776482582,0.05400000140070915,-0.09099999815225601
1728651085700229000,9.18422900390625,0.09200000017881393,0.0820000022649765,-0.03700000047683716
1728651085709834500,9.19383447265625,0.13099999725818634,0.06199999898672104,-0.00800000037997961
1728651085719440000,9.20343994140625,-0.004000000189989805,0.06300000101327896,-0.020999999716877937
1728651085729045000,9.213044921875,0.11400000005960464,0.10700000077486038,-0.04500000178813934
1728651085738650400,9.222650390625,0.6039999723434448,-0.032999999821186066,0.07400000095367432
1728651085748255700,9.232255859375,0.6439999938011169,-0.1459999978542328,0.0989999994635582
1728651085757861000,9.241861083984375,0.2759999930858612,-0.07900000363588333,0.03099999949336052
1728651085767466200,9.25146630859375,-0.035999998450279236,0.004999999888241291,-0.04600000008940697
1728651085777071600,9.261071533203125,0.14100000262260437,0.10300000011920929,-0.08900000154972076
1728651085786676700,9.2706767578125,0.42399999499320984,0.05299999937415123,-0.14800000190734863
1728651085796282000,9.2802822265625,0.5460000038146973,-0.0560000017285347,-0.0560000017285347
1728651085805887200,9.28988720703125,0.19300000369548798,-0.10599999874830246,-0.024000000208616257
1728651085815492600,9.29949267578125,-0.03799999877810478,-0.024000000208616257,-0.03700000047683716
1728651085825098000,9.309097900390626,0.30000001192092896,0.03700000047683716,-0.03400000184774399
1728651085834703000,9.318703125,0.5170000195503235,-0.017999999225139618,-0.03500000014901161
1728651085844308500,9.32830859375,0.3930000066757202,0.0020000000949949026,-0.0430000014603138
1728651085853913600,9.33791357421875,0.24300000071525574,0.017999999225139618,-0.09700000286102295
1728651085863519000,9.34751904296875,0.44600000977516174,-0.06400000303983688,-0.10000000149011612
1728651085873124400,9.357124267578126,0.46000000834465027,-0.15800000727176666,-0.14100000262260437
1728651085882729700,9.366729736328125,0.24300000071525574,-0.17499999701976776,-0.11599999666213989
1728651085892334800,9.3763349609375,0.24300000071525574,-0.13300000131130219,-0.007000000216066837
1728651085901940200,9.385940185546875,0.6100000143051147,-0.07100000232458115,0.0729999989271164
1728651085911545600,9.395545654296875,1.003999948501587,-0.05999999865889549,0.15399999916553497
1728651085921151000,9.40515087890625,0.7860000133514404,-0.1340000033378601,0.18700000643730164
1728651085930756000,9.414756103515625,0.3370000123977661,-0.26899999380111694,0.13300000131130219
1728651085940361500,9.424361572265624,0.12099999934434891,-0.12200000137090683,-0.014000000432133675
1728651085949966800,9.433966796875,0.39399999380111694,-0.03700000047683716,-0.08399999886751175
1728651085959572000,9.443572021484375,0.4490000009536743,-0.09000000357627869,-0.03700000047683716
1728651085969177300,9.45317724609375,0.23100000619888306,-0.10199999809265137,-0.007000000216066837
1728651085978782700,9.46278271484375,0.05299999937415123,0.03099999949336052,0.08500000089406967
1728651085988388000,9.47238818359375,0.3659999966621399,0.004000000189989805,0.14100000262260437
1728651085997993500,9.481993408203126,0.5180000066757202,-0.19599999487400055,0.1379999965429306
1728651086007598600,9.4915986328125,0.04100000113248825,-0.16699999570846558,0.07100000232458115
1728651086017204000,9.501203857421874,-0.10599999874830246,0.0010000000474974513,-0.009999999776482582
1728651086026809000,9.51080908203125,0.17900000512599945,-0.07599999755620956,-0.06300000101327896
1728651086036414500,9.52041455078125,0.12700000405311584,-0.1459999978542328,-0.017999999225139618
1728651086046019800,9.530019775390626,-0.08900000154972076,-0.15700000524520874,0.06400000303983688
1728651086055625200,9.539625244140625,0.1850000023841858,-0.15000000596046448,0.15299999713897705
1728651086065230300,9.549230224609374,0.4970000088214874,-0.20600000023841858,0.23800000548362732
1728651086074835700,9.558835693359375,0.30799999833106995,-0.17599999904632568,0.17900000512599945
1728651086084441000,9.568441162109375,-0.10000000149011612,-0.09399999678134918,0.12600000202655792
1728651086094046500,9.57804638671875,-0.3149999976158142,-0.017999999225139618,0.07699999958276749
1728651086103651600,9.587651611328125,-0.12399999797344208,0.009999999776482582,0.09000000357627869
1728651086113257000,9.597257080078125,-0.1080000028014183,0.02500000037252903,0.06700000166893005
1728651086122862000,9.606862060546876,-0.16200000047683716,0.03999999910593033,0.050999999046325684
1728651086132467500,9.616467529296875,-0.039000000804662704,0.013000000268220901,0.05700000002980232
1728651086142072800,9.62607275390625,0.028999999165534973,0.013000000268220901,0.013000000268220901
1728651086151678000,9.635677978515625,0.08299999684095383,-0.03999999910593033,-0.024000000208616257
1728651086161283300,9.645283447265625,-0.17399999499320984,0.041999999433755875,-0.06499999761581421
1728651086170888700,9.654888671875,-0.32499998807907104,0.16099999845027924,-0.06400000303983688
1728651086180494000,9.664494140625,-0.02500000037252903,0.12099999934434891,-0.10700000077486038
1728651086190099200,9.67409912109375,0.12300000339746475,0.023000000044703484,-0.06400000303983688
1728651086199704600,9.68370458984375,0.027000000700354576,-0.017999999225139618,-0.03700000047683716
1728651086209310000,9.69331005859375,0.013000000268220901,-0.04399999976158142,-0.04500000178813934
1728651086218915300,9.702915283203126,-0.0949999988079071,-0.01899999938905239,-0.08299999684095383
1728651086228520400,9.7125205078125,-0.16500000655651093,0.008999999612569809,-0.15299999713897705
1728651086238125800,9.722125732421874,-0.16500000655651093,0.10400000214576721,-0.1120000034570694
1728651086247731200,9.731731201171876,-0.07100000232458115,0.07199999690055847,-0.07999999821186066
1728651086257336300,9.74133642578125,-0.057999998331069946,0.003000000026077032,-0.04100000113248825
1728651086266941700,9.750941650390626,-0.125,-0.032999999821186066,-0.039000000804662704
1728651086276547000,9.760547119140625,-0.13899999856948853,-0.032999999821186066,-0.05299999937415123
1728651086286152200,9.770152099609374,-0.2199999988079071,0.012000000104308128,-0.11599999666213989
1728651086295757600,9.779757568359376,-0.20499999821186066,0.0820000022649765,-0.1720000058412552
1728651086305363000,9.789363037109375,-0.029999999329447746,0.11699999868869781,-0.11299999803304672
1728651086314968000,9.798968017578124,0.009999999776482582,0.06199999898672104,-0.05999999865889549
1728651086324573400,9.808573486328125,-0.04399999976158142,0.032999999821186066,-0.03200000151991844
1728651086334178800,9.8181787109375,0.035999998450279236,0.01899999938905239,-0.05900000035762787
1728651086343784200,9.8277841796875,0.08900000154972076,0.014000000432133675,-0.06599999964237213
1728651086353389600,9.8373896484375,0.019999999552965164,0.03999999910593033,-0.09099999815225601
1728651086362994700,9.84699462890625,-0.008999999612569809,0.06199999898672104,-0.09700000286102295
1728651086372600000,9.85660009765625,0.004000000189989805,0.1289999932050705,-0.02800000086426735
1728651086382205400,9.866205322265625,0.09700000286102295,0.07900000363588333,0.024000000208616257
1728651086391810800,9.875810791015626,0.20499999821186066,0.00800000037997961,0.06400000303983688
1728651086401416000,9.885416015625,0.13699999451637268,-0.03400000184774399,0.05999999865889549
1728651086411021300,9.895021240234374,0.041999999433755875,-0.04899999871850014,-0.02199999988079071
1728651086420626700,9.904626708984376,0.16300000250339508,-0.024000000208616257,-0.04500000178813934
1728651086430231800,9.914231689453125,0.06800000369548798,0.01600000075995922,-0.04500000178813934
1728651086439837200,9.923837158203124,0,0.02800000086426735,-0.017999999225139618
1728651086449442600,9.933442626953125,0.24400000274181366,-0.013000000268220901,0.04800000041723251
1728651086459048000,9.9430478515625,0.3659999966621399,-0.07100000232458115,0.0729999989271164
1728651086468653000,9.952653076171876,0.33799999952316284,-0.12700000405311584,0.05999999865889549
1728651086478258400,9.962258544921875,0.17499999701976776,-0.05900000035762787,0.04500000178813934
1728651086487863800,9.97186376953125,0.1889999955892563,-0.004999999888241291,0.04500000178813934
1728651086497469200,9.98146923828125,0.2290000021457672,0.017000000923871994,0.05400000140070915
1728651086507074300,9.99107421875,0.2160000056028366,0.017000000923871994,0.07800000160932541
1728651086516679700,10.0006796875,0.26899999380111694,0.03700000047683716,0.08500000089406967
1728651086526285000,10.01028515625,0.33799999952316284,0.06400000303983688,0.07000000029802322
1728651086535890200,10.01989013671875,0.4169999957084656,0.02800000086426735,0.017000000923871994
1728651086545495600,10.02949560546875,0.2669999897480011,0.06800000369548798,0.017000000923871994
1728651086555101000,10.039100830078125,0.2370000034570694,0.0860000029206276,0.017999999225139618
1728651086564706300,10.048706298828124,0.29100000858306885,0.08399999886751175,0.03200000151991844
1728651086574311400,10.0583115234375,0.31700000166893005,0.020999999716877937,0.07000000029802322
1728651086583916800,10.067916748046875,0.30300000309944153,-0.061000000685453415,0.08299999684095383
1728651086593522200,10.077522216796876,0.30399999022483826,-0.12700000405311584,0.10599999874830246
1728651086603127600,10.08712744140625,0.2630000114440918,-0.1289999932050705,0.09300000220537186
1728651086612733000,10.09673291015625,0.38499999046325684,-0.11599999666213989,0.027000000700354576
1728651086622338000,10.106338134765625,0.3840000033378601,-0.10400000214576721,-0.026000000536441803
1728651086631943400,10.115943359375,0.19300000369548798,-0.08900000154972076,-0.03500000014901161
1728651086641548800,10.125548828125,0.13899999856948853,-0.07599999755620956,-0.020999999716877937
1728651086651154000,10.13515380859375,0.15299999713897705,-0.0860000029206276,0.017999999225139618
1728651086660759300,10.14475927734375,0.22100000083446503,-0.11400000005960464,0.04500000178813934
1728651086670364400,10.154364501953125,0.22200000286102295,-0.09700000286102295,-0.004999999888241291
1728651086679969800,10.1639697265625,0.1679999977350235,-0.027000000700354576,0.006000000052154064
1728651086689575200,10.1735751953125,0.23499999940395355,0.008999999612569809,-0.017999999225139618
1728651086699180500,10.1831806640625,0.3569999933242798,0.02199999988079071,0.019999999552965164
1728651086708786000,10.192785888671875,0.22100000083446503,-0.04600000008940697,0.04399999976158142
1728651086718391300,10.202391357421876,0.0989999994635582,-0.0729999989271164,0.0430000014603138
1728651086727996700,10.21199658203125,0.07199999690055847,-0.04399999976158142,-0.008999999612569809
1728651086737601800,10.221601806640624,0.0989999994635582,0.024000000208616257,-0.05000000074505806
1728651086747207200,10.231207275390625,0.05700000002980232,0.04699999839067459,-0.05900000035762787
1728651086756812500,10.2408125,0.08399999886751175,0.04699999839067459,-0.05900000035762787
1728651086766417700,10.250417724609376,0.12399999797344208,0.028999999165534973,-0.01600000075995922
1728651086776024300,10.2600244140625,-0.012000000104308128,-0.05400000140070915,-0.003000000026077032
1728651086785629700,10.269629638671875,-0.07800000160932541,-0.08900000154972076,0.03500000014901161
1728651086795234800,10.27923486328125,0.01600000075995922,-0.12999999523162842,0.020999999716877937
1728651086804840400,10.28884033203125,0.09700000286102295,-0.13099999725818634,0.00800000037997961
1728651086814445600,10.298445556640624,0.125,-0.08699999749660492,0.02199999988079071
1728651086824051000,10.308051025390625,0.09799999743700027,-0.11500000208616257,-0.004999999888241291
1728651086833656000,10.317656005859375,0.23499999940395355,-0.1899999976158142,-0.014000000432133675
1728651086843261400,10.327261474609376,0.12600000202655792,-0.20399999618530273,-0.04100000113248825
1728651086852866800,10.33686669921875,-0.27799999713897705,-0.13300000131130219,-0.10199999809265137
1728651086862472000,10.346471923828124,-0.2370000034570694,-0.00800000037997961,-0.15700000524520874
1728651086872077300,10.356077392578126,-0.1420000046491623,0.0729999989271164,-0.12300000339746475
1728651086881682700,10.3656826171875,-0.14100000262260437,0.14399999380111694,-0.1120000034570694
1728651086891288000,10.3752880859375,-0.19599999487400055,0.10100000351667404,-0.08299999684095383
1728651086900893200,10.38489306640625,-0.1550000011920929,0.11699999868869781,-0.004000000189989805
1728651086910498600,10.39449853515625,-0.10199999809265137,0.17499999701976776,0.004999999888241291
1728651086920103700,10.404103759765626,0.2240000069141388,0.14800000190734863,0.08500000089406967
1728651086929709300,10.413709228515625,0.4399999976158142,0.014000000432133675,0.13199999928474426
1728651086939314400,10.423314453125,0.1809999942779541,0.052000001072883606,0.14499999582767487
1728651086948920000,10.432920166015625,0.017000000923871994,0.04699999839067459,0.07400000095367432
1728651086958525200,10.442525146484375,0.07100000232458115,0.061000000685453415,0.04899999871850014
1728651086968130600,10.452130615234376,-0.03799999877810478,0.04600000008940697,-0.06700000166893005
1728651086977735700,10.461735595703125,-0.18799999356269836,0.07400000095367432,-0.14900000393390656
1728651086987341300,10.47134130859375,-0.10599999874830246,-0.004000000189989805,-0.10199999809265137
1728651086996946400,10.480946533203126,-0.13300000131130219,-0.003000000026077032,-0.04899999871850014
1728651087006551800,10.4905517578125,-0.1459999978542328,0,0.0020000000949949026
1728651087016157000,10.500156982421874,-0.035999998450279236,-0.014000000432133675,0.03999999910593033
1728651087025762600,10.509762451171875,0.2630000114440918,-0.10700000077486038,0.03700000047683716
1728651087035367700,10.51936767578125,0.28999999165534973,-0.1080000028014183,-0.004000000189989805
1728651087044973000,10.52897314453125,0.1679999977350235,-0.10300000011920929,-0.05299999937415123
1728651087054578200,10.538578125,0.12800000607967377,-0.08799999952316284,-0.09300000220537186
1728651087064183800,10.548183837890624,0.14100000262260437,-0.07000000029802322,-0.08399999886751175
1728651087073789000,10.557788818359375,-0.00800000037997961,0.010999999940395355,-0.10899999737739563
1728651087083394300,10.567394287109375,0.004000000189989805,0.03700000047683716,-0.06199999898672104
1728651087092999700,10.576999755859376,-0.035999998450279236,0.07900000363588333,-0.007000000216066837
1728651087102604800,10.586604736328125,-0.06400000303983688,0.07500000298023224,0.01600000075995922
1728651087112210200,10.596210205078124,0.08500000089406967,0.09000000357627869,0.0689999982714653
1728651087121815600,10.605815673828126,0.13899999856948853,0.11999999731779099,0.10000000149011612
1728651087131421000,10.6154208984375,0.19300000369548798,0.06499999761581421,0.13899999856948853
1728651087141026300,10.6250263671875,0.16599999368190765,0.04600000008940697,0.11699999868869781
1728651087150631400,10.63463134765625,0.08399999886751175,0.03200000151991844,0.07599999755620956
1728651087160237000,10.644237060546875,0.11100000143051147,-0.00800000037997961,0.009999999776482582
1728651087169842200,10.65384228515625,0.014999999664723873,0.04600000008940697,-0.041999999433755875
1728651087179447300,10.663447265625,0.014999999664723873,0.017000000923871994,-0.024000000208616257
1728651087189053000,10.673052978515624,0.0689999982714653,-0.03700000047683716,-0.09000000357627869
1728651087198658300,10.682658203125,0.42100000381469727,-0.1080000028014183,-0.0010000000474974513
1728651087208263400,10.692263427734375,0.23000000417232513,-0.15199999511241913,-0.0820000022649765
1728651087217868800,10.701868896484376,-0.026000000536441803,-0.1420000046491623,-0.024000000208616257
1728651087227474000,10.711473876953125,0.06800000369548798,-0.07400000095367432,-0.035999998450279236
1728651087237079300,10.721079345703124,0.09399999678134918,0.004999999888241291,-0.04500000178813934
1728651087246684700,10.7306845703125,0.08100000023841858,-0.00800000037997961,-0.04600000008940697
1728651087256290000,10.7402900390625,0.07999999821186066,-0.020999999716877937,-0.041999999433755875
1728651087265895400,10.7498955078125,0.05299999937415123,0.004999999888241291,-0.0430000014603138
1728651087275500800,10.759500732421875,0.06499999761581421,0.028999999165534973,-0.05299999937415123
1728651087285106200,10.769106201171875,0.16099999845027924,0.07000000029802322,-0.05299999937415123
1728651087294711300,10.778711181640626,0.26600000262260437,0.0860000029206276,-0.061000000685453415
1728651087304316700,10.788316650390625,0.2529999911785126,0.11299999803304672,-0.10499999672174454
1728651087313922000,10.797922119140624,0.1550000011920929,0.09000000357627869,-0.0729999989271164
1728651087323527200,10.807527099609375,0.0729999989271164,0.06199999898672104,-0.08699999749660492
1728651087333132800,10.8171328125,0.11100000143051147,0.054999999701976776,-0.10499999672174454
1728651087342738000,10.826738037109376,0.12399999797344208,0.026000000536441803,-0.10499999672174454
1728651087352343300,10.83634326171875,0.14900000393390656,0.019999999552965164,-0.1080000028014183
1728651087361948400,10.845948486328124,0.03999999910593033,0.01899999938905239,-0.10700000077486038
1728651087371554000,10.855553955078125,-0.11100000143051147,0.07100000232458115,-0.12600000202655792
1728651087381159200,10.8651591796875,0.03799999877810478,0.04399999976158142,-0.14000000059604645
1728651087390764500,10.8747646484375,0.1459999978542328,0,-0.10499999672174454
1728651087400369700,10.88436962890625,0.10499999672174454,-0.026000000536441803,-0.10599999874830246
1728651087409975300,10.893975341796875,0.008999999612569809,-0.010999999940395355,-0.0729999989271164
1728651087419580400,10.903580322265626,-0.057999998331069946,0.017000000923871994,-0.05900000035762787
1728651087429185800,10.913185791015625,-0.07100000232458115,0.04399999976158142,-0.0560000017285347
1728651087438791000,10.922791015625,-0.07100000232458115,0.032999999821186066,-0.004000000189989805
1728651087448396300,10.932396240234375,0.03700000047683716,0.04399999976158142,0.04399999976158142
1728651087458001700,10.942001708984375,0.2549999952316284,-0.02500000037252903,0.08500000089406967
1728651087467607000,10.95160693359375,0.18799999356269836,-0.09099999815225601,0.1080000028014183
1728651087477212200,10.961212158203125,-0.13899999856948853,-0.03700000047683716,0.09700000286102295
1728651087486817500,10.970817626953124,-0.164000004529953,-0.006000000052154064,0.11699999868869781
1728651087496423000,10.9804228515625,-0.12300000339746475,0.07599999755620956,0.13099999725818634
1728651087506028000,10.990028076171875,-0.07999999821186066,0.008999999612569809,0.18400000035762787
1728651087515633700,10.999633544921876,-0.012000000104308128,-0.0430000014603138,0.19599999487400055
1728651087525238800,11.00923876953125,-0.14300000667572021,-0.15199999511241913,0.17000000178813934
1728651087534844200,11.01884423828125,-0.1289999932050705,-0.19300000369548798,0.11699999868869781
1728651087544449300,11.02844921875,-0.03099999949336052,-0.15399999916553497,0.08500000089406967
1728651087554055000,11.038054931640625,0.2669999897480011,-0.18400000035762787,0.08699999749660492
1728651087563660000,11.047659912109374,0.25600001215934753,-0.25600001215934753,0.12300000339746475
1728651087573265400,11.057265380859375,0.050999999046325684,-0.28600001335144043,0.12600000202655792
1728651087582870500,11.06687060546875,0.09700000286102295,-0.33399999141693115,0.09700000286102295
1728651087592476200,11.07647607421875,-0.012000000104308128,-0.33500000834465027,0.007000000216066837
1728651087602081300,11.086081298828125,-0.2669999897480011,-0.20600000023841858,-0.07800000160932541
1728651087611686700,11.095686767578124,-0.10400000214576721,-0.1379999965429306,-0.15700000524520874
1728651087621291800,11.105291748046875,0.004000000189989805,-0.10400000214576721,-0.12999999523162842
1728651087630897200,11.114897216796875,-0.09099999815225601,-0.052000001072883606,-0.10100000351667404
1728651087640502500,11.12450244140625,-0.11800000071525574,-0.008999999612569809,-0.006000000052154064
1728651087650108000,11.13410791015625,-0.03700000047683716,0.0430000014603138,0.06300000101327896
1728651087659713000,11.143713134765624,-0.09200000017881393,0.09099999815225601,0.04399999976158142
1728651087669318400,11.153318359375,0.09700000286102295,0.14300000667572021,0.09600000083446503
1728651087678923800,11.162923828125,0.24500000476837158,0.09000000357627869,0.06400000303983688
1728651087688529000,11.17252880859375,0.14900000393390656,0.17100000381469727,0.03700000047683716
1728651087698134500,11.182134521484375,0.13099999725818634,0.16899999976158142,-0.052000001072883606
1728651087707739600,11.19173974609375,0.23999999463558197,0.08500000089406967,-0.09200000017881393
1728651087717345000,11.201344970703126,0.10100000351667404,0.06499999761581421,-0.10999999940395355
1728651087726950100,11.2109501953125,-0.10300000011920929,0.050999999046325684,-0.164000004529953
1728651087736555800,11.2205556640625,-0.023000000044703484,0.0729999989271164,-0.14100000262260437
1728651087746161000,11.230160888671875,0.05700000002980232,0.03200000151991844,-0.08900000154972076
1728651087755766300,11.239766357421875,0.20499999821186066,-0.012000000104308128,-0.12300000339746475
1728651087765371400,11.249371337890626,0.3409999907016754,-0.12399999797344208,-0.0689999982714653
1728651087774977000,11.25897705078125,0.09600000083446503,-0.11800000071525574,-0.10000000149011612
1728651087784582100,11.26858203125,0.0820000022649765,-0.035999998450279236,-0.15199999511241913
1728651087794187300,11.278187255859375,0.27000001072883606,-0.02500000037252903,-0.17599999904632568
1728651087803792600,11.287792724609375,0.17499999701976776,-0.024000000208616257,-0.1889999955892563
1728651087813398000,11.29739794921875,-0.028999999165534973,0.004000000189989805,-0.16099999845027924
1728651087823003400,11.30700341796875,-0.0020000000949949026,0.04699999839067459,-0.13300000131130219
1728651087832608800,11.31660888671875,0.06400000303983688,0.07100000232458115,-0.13600000739097595
1728651087842214000,11.3262138671875,0.06400000303983688,0.08699999749660492,-0.09700000286102295
1728651087851819500,11.335819580078125,0.26600000262260437,0.05299999937415123,-0.052000001072883606
1728651087861424600,11.345424560546874,0.41600000858306885,0.039000000804662704,-0.02500000037252903
1728651087871030000,11.355030029296875,0.18299999833106995,0.032999999821186066,0.014000000432133675
1728651087880635100,11.36463525390625,0.08799999952316284,0.04699999839067459,0.02800000086426735
1728651087890240500,11.374240478515626,0.20900000631809235,0.06599999964237213,0.05299999937415123
1728651087899846000,11.383845947265625,0.24899999797344208,0.03799999877810478,0.12300000339746475
1728651087909451300,11.393451171875,-0.00800000037997961,0.061000000685453415,0.11500000208616257
1728651087919056400,11.403056396484375,0.11299999803304672,0.04800000041723251,0.11500000208616257
1728651087928661800,11.412661865234375,0.24899999797344208,0.004000000189989805,0.08299999684095383
1728651087938267100,11.42226708984375,0.1679999977350235,-0.00800000037997961,0.041999999433755875
1728651087947872500,11.43187255859375,0.14000000059604645,0.028999999165534973,0.03999999910593033
1728651087957478000,11.441477783203124,0.1679999977350235,0.07100000232458115,0.05299999937415123
1728651087967083000,11.4510830078125,0.289000004529953,0.023000000044703484,0.050999999046325684
1728651087976688400,11.4606884765625,0.15299999713897705,0.09099999815225601,0.09099999815225601
1728651087986293500,11.47029345703125,0.16500000655651093,0.06800000369548798,0.1120000034570694
1728651087995899000,11.47989892578125,0.12399999797344208,0.027000000700354576,0.09799999743700027
1728651088005504300,11.489504150390625,0.09700000286102295,0,0.04100000113248825
1728651088015109600,11.499109619140626,0.028999999165534973,0.027000000700354576,0
1728651088024715000,11.508715087890625,-0.039000000804662704,0.07900000363588333,0
1728651088034320400,11.5183203125,-0.024000000208616257,0.13600000739097595,0.02500000037252903
1728651088043925500,11.527925537109375,0.12399999797344208,0.08900000154972076,0.0860000029206276
1728651088053531000,11.53753076171875,0.19200000166893005,0.03500000014901161,0.13899999856948853
1728651088063136300,11.54713623046875,0.22100000083446503,-0.05900000035762787,0.1289999932050705
1728651088072741600,11.55674169921875,0.12600000202655792,-0.04500000178813934,0.12800000607967377
1728651088082346800,11.5663466796875,0.1809999942779541,-0.05700000002980232,0.0949999988079071
1728651088091952000,11.5759521484375,0.11299999803304672,-0.0430000014603138,0.06700000166893005
1728651088101557500,11.5855576171875,0.15399999916553497,-0.03099999949336052,0.06300000101327896
1728651088111163000,11.595162841796874,0.1809999942779541,-0.017999999225139618,0.04899999871850014
1728651088120768000,11.60476806640625,-0.08900000154972076,-0.027000000700354576,0.057999998331069946
1728651088130373400,11.614373291015625,-0.41499999165534973,0.09600000083446503,0.03099999949336052
1728651088139978800,11.623978759765626,-0.2919999957084656,0.15000000596046448,0.023000000044703484
1728651088149584000,11.633583984375,-0.01600000075995922,0.11599999666213989,-0.013000000268220901
1728651088159189200,11.643189208984374,0.09200000017881393,0.05999999865889549,-0.020999999716877937
1728651088168794600,11.652794677734375,0.12099999934434891,0.035999998450279236,0.052000001072883606
1728651088178399700,11.662399658203125,0.20399999618530273,-0.01899999938905239,0.12099999934434891
1728651088188005400,11.67200537109375,0.21799999475479126,0.04899999871850014,0.15800000727176666
1728651088197610500,11.681610595703125,0.23100000619888306,0.07999999821186066,0.1599999964237213
1728651088207215900,11.6912158203125,-0.14900000393390656,0.014000000432133675,-0.01600000075995922
1728651088216821200,11.7008212890625,-0.31200000643730164,0.057999998331069946,-0.09399999678134918
1728651088226426600,11.710426513671875,-0.12099999934434891,0.05900000035762787,-0.10999999940395355
1728651088236031700,11.72003173828125,0.19099999964237213,-0.06400000303983688,-0.02800000086426735
1728651088245637000,11.72963720703125,0.39500001072883606,-0.164000004529953,0.07500000298023224
1728651088255242200,11.7392421875,0.5730000138282776,-0.21799999475479126,0.09600000083446503
1728651088264848000,11.748847900390626,0.5320000052452087,-0.3700000047683716,0.14499999582767487
1728651088274453000,11.758452880859375,0.06199999898672104,-0.39500001072883606,-0.05900000035762787
1728651088284058400,11.768058349609374,0.009999999776482582,-0.32100000977516174,-0.1720000058412552
1728651088293663700,11.777663818359375,-0.30000001192092896,-0.12099999934434891,-0.41600000858306885
1728651088303269000,11.78726904296875,-0.013000000268220901,0.019999999552965164,-0.4180000126361847
