time,seconds_elapsed,z,y,x
1728651076623294700,0.107294677734375,9.939000129699707,-1.5540000200271606,-0.5550000071525574
1728651076632900000,0.116900146484375,9.502950668334961,-1.3429501056671143,-0.3559500277042389
1728651076642505200,0.126505126953125,9.46500015258789,-1.237950086593628,-0.27195000648498535
1728651076652110300,0.1361103515625,9.568050384521484,-1.3450500965118408,-0.3349500298500061
1728651076661715500,0.145715576171875,9.688050270080566,-1.4359500408172607,-0.31800001859664917
1728651076671320800,0.15532080078125,9.391050338745117,-1.294950008392334,-0.11700000613927841
1728651076685727500,0.1697275390625,9.532050132751465,-1.3170000314712524,-0.31995001435279846
1728651076695332600,0.17933251953125,9.855000495910645,-1.3860000371932983,-0.3439500033855438
1728651076704937700,0.188937744140625,10.056000709533691,-1.5970500707626343,-0.47805002331733704
1728651076714542800,0.19854296875,9.829050064086914,-1.6140000820159912,-0.49695003032684326
1728651076724148200,0.208148193359375,9.373950004577637,-1.432050108909607,-0.31095001101493835
1728651076733753300,0.21775341796875,9.232950210571289,-1.290000081062317,-0.20805001258850098
1728651076743358500,0.2273583984375,9.721050262451172,-1.432050108909607,-0.2939999997615814
1728651076757767700,0.241767578125,9.79800033569336,-1.53000009059906,-0.24105000495910645
1728651076767372800,0.251372802734375,9.622950553894043,-1.5010501146316528,-0.16695000231266022
1728651076776978000,0.26097802734375,9.78795051574707,-1.5630000829696655,-0.23595000803470612
1728651076786583000,0.2705830078125,9.961050033569336,-1.7479500770568848,-0.3079500198364258
1728651076796188400,0.2801884765625,9.75195026397705,-1.7569501399993896,-0.28200000524520874
1728651076805793300,0.289793212890625,9.393000602722168,-1.6350001096725464,-0.19995000958442688
1728651076815398700,0.299398681640625,9.26205062866211,-1.5319501161575317,-0.1770000010728836
1728651076825003800,0.309003662109375,9.589950561523438,-1.4839500188827515,-0.17205001413822174
1728651076834609200,0.318609130859375,9.81705093383789,-1.4820001125335693,-0.14295001327991486
1728651076844214300,0.32821435546875,9.942000389099121,-1.4560500383377075,-0.2650500237941742
1728651076853819400,0.3378193359375,10.104000091552734,-1.5229500532150269,-0.27900001406669617
1728651076863424500,0.347424560546875,10.05405044555664,-1.6780500411987305,-0.05400000140070915
1728651076873029600,0.357029541015625,9.988950729370117,-1.7809500694274902,-0.13095000386238098
1728651076882635000,0.366635009765625,9.694950103759766,-1.7569501399993896,-0.08295000344514847
1728651076892240100,0.376240234375,9.20895004272461,-1.6300500631332397,0.016050001606345177
1728651076901845200,0.38584521484375,8.910000801086426,-1.3840500116348267,0.37095001339912415
1728651076911450600,0.39545068359375,9.444000244140625,-1.5799500942230225,0.20295001566410065
1728651076921055700,0.4050556640625,10.594950675964355,-1.5730500221252441,-0.29100000858306885
1728651076930661000,0.4146611328125,10.870950698852539,-1.645050048828125,-0.19095000624656677
1728651076940266000,0.424265869140625,10.741050720214844,-1.8580501079559326,0.51705002784729
1728651076949871000,0.43387109375,9.903000831604004,-1.8630000352859497,0.46905001997947693
1728651076959476500,0.4434765625,9.19005012512207,-1.8079501390457153,0.5220000147819519
1728651076969081600,0.45308154296875,8.335050582885742,-1.6060501337051392,-0.07395000010728836
1728651076978686700,0.462686767578125,9.195000648498535,-1.8049501180648804,0.2580000162124634
1728651076988291800,0.472291748046875,9.867000579833984,-1.8169500827789307,-0.013950000517070293
1728651076997897200,0.481897216796875,10.413000106811523,-1.9099501371383667,0.14100000262260437
1728651077007502300,0.49150244140625,9.790950775146484,-2.01705002784729,0.5530500411987305
1728651077017107500,0.501107421875,8.766000747680664,-1.867050051689148,0.37605002522468567
1728651077026712600,0.510712646484375,8.788050651550293,-1.6879501342773438,-0.030000001192092896
1728651077036318000,0.52031787109375,9.400050163269043,-1.5319501161575317,-0.4330500066280365
1728651077045923000,0.529923095703125,10.285950660705566,-1.696950078010559,-0.45705002546310425
1728651077055528200,0.539528076171875,10.459050178527832,-1.8720000982284546,-0.4710000157356262
1728651077065133300,0.54913330078125,9.642000198364258,-1.894050121307373,-0.3679500222206116
1728651077074738700,0.55873876953125,8.886000633239746,-1.7329500913619995,-0.21495001018047333
1728651077084343800,0.56834375,8.73705005645752,-1.4239500761032104,0.18900001049041748
1728651077093949000,0.577948974609375,9.361950874328613,-1.4410500526428223,0.05700000375509262
1728651077103554000,0.587553955078125,10.210050582885742,-1.599000096321106,-0.025950001552700996
1728651077113159400,0.597159423828125,9.997050285339355,-1.675950050354004,-0.010950000956654549
1728651077122764300,0.606764404296875,9.682950019836426,-1.6930500268936157,-0.08100000023841858
1728651077132369700,0.61636962890625,9.678000450134277,-1.6710001230239868,-0.05700000375509262
1728651077141974800,0.625974853515625,9.865050315856934,-1.6780500411987305,-0.08595000207424164
1728651077151580200,0.635580078125,10.1089506149292,-1.6609500646591187,-0.14805001020431519
1728651077161185300,0.645185302734375,10.018050193786621,-1.6710001230239868,-0.15495000779628754
1728651077170790100,0.6547900390625,9.565950393676758,-1.5919500589370728,-0.06599999964237213
1728651077180395500,0.6643955078125,9.407999992370605,-1.5589500665664673,-0.046950001269578934
1728651077190000600,0.674000732421875,9.726000785827637,-1.675950050354004,-0.04500000178813934
1728651077199606000,0.68360595703125,9.838950157165527,-1.8430501222610474,0.08595000207424164
1728651077209211100,0.693211181640625,9.432000160217285,-1.8769501447677612,0.16995000839233398
1728651077218816300,0.702816162109375,9.280950546264648,-1.7760001420974731,0.031050002202391624
1728651077228421600,0.712421630859375,9.562950134277344,-1.602000117301941,-0.16005000472068787
1728651077238026500,0.722026611328125,10.138050079345703,-1.6849501132965088,-0.10200000554323196
1728651077247632000,0.7316318359375,10.0420503616333,-1.8649500608444214,-0.004050000105053186
1728651077257237000,0.741237060546875,9.469950675964355,-1.810050129890442,0.12405000627040863
1728651077266842000,0.750842041015625,9.19005012512207,-1.7050501108169556,0.16200000047683716
1728651077276447500,0.760447509765625,9.535050392150879,-1.6609500646591187,0.024000000208616257
1728651077286052400,0.77005224609375,9.970050811767578,-1.759950041770935,0.025950001552700996
1728651077295657700,0.77965771484375,10.02495002746582,-1.8409501314163208,-0.0019500000635161996
1728651077305262800,0.789262939453125,9.694950103759766,-1.798050045967102,0.05205000191926956
1728651077314868000,0.798867919921875,9.594000816345215,-1.755000114440918,0.11205000430345535
1728651077324473300,0.808473388671875,9.855000495910645,-1.7839500904083252,0.06000000238418579
1728651077334078500,0.818078369140625,9.937050819396973,-1.852950096130371,0.1579500138759613
1728651077343683600,0.82768359375,9.670950889587402,-1.8430501222610474,0.1770000010728836
1728651077353288700,0.837288818359375,9.355050086975098,-1.7809500694274902,0.25200000405311584
1728651077362894000,0.84689404296875,9.26400089263916,-1.7479500770568848,0.21300001442432404
1728651077372499200,0.856499267578125,9.348000526428223,-1.6950000524520874,0.22500000894069672
1728651077382104300,0.866104248046875,9.580050468444824,-1.7290500402450562,0.19395001232624054
1728651077391709700,0.875709716796875,9.678000450134277,-1.7640000581741333,0.12195000797510147
1728651077401314600,0.885314453125,9.754950523376465,-1.8480000495910645,0.17205001413822174
1728651077410919700,0.894919677734375,9.705000877380371,-1.8600001335144043,0.2939999997615814
1728651077420525000,0.904525146484375,9.646950721740723,-1.870050072669983,0.41895002126693726
1728651077430130200,0.914130126953125,9.597000122070312,-1.8510000705718994,0.5290500521659851
1728651077439735000,0.923735107421875,9.831000328063965,-1.8600001335144043,0.4830000102519989
1728651077449340400,0.93334033203125,10.119000434875488,-1.8820500373840332,0.38805001974105835
1728651077458945500,0.942945556640625,10.045050621032715,-1.8870000839233398,0.45900002121925354
1728651077468550700,0.952550537109375,9.739950180053711,-1.894050121307373,0.5530500411987305
1728651077478156000,0.962156005859375,9.826950073242188,-1.8870000839233398,0.5860500335693359
1728651077487761200,0.97176123046875,9.517950057983398,-1.8790501356124878,0.48795002698898315
1728651077497366300,0.9813662109375,9.409950256347656,-1.9699500799179077,0.45705002546310425
1728651077506971400,0.990971435546875,9.646950721740723,-2.0779500007629395,0.49500003457069397
1728651077516576500,1.000576416015625,9.5110502243042,-1.8750001192092896,0.6390000581741333
1728651077526182000,1.010181884765625,9.400050163269043,-1.852950096130371,0.8710500597953796
1728651077535787000,1.019787109375,9.814950942993164,-2.140050172805786,0.5010000467300415
1728651077545392000,1.02939208984375,9.664050102233887,-1.8889501094818115,0.6460500359535217
1728651077554997200,1.038997314453125,9.553950309753418,-2.1690001487731934,0.7489500641822815
1728651077564602400,1.048602294921875,9.592050552368164,-2.1859500408172607,0.7300500273704529
1728651077574207700,1.058207763671875,9.676050186157227,-2.1160500049591064,0.7969500422477722
1728651077583812600,1.0678125,9.877050399780273,-2.2099502086639404,0.9330000281333923
1728651077593418000,1.07741796875,9.913050651550293,-2.2699501514434814,0.856950044631958
1728651077603023000,1.087023193359375,9.709050178527832,-2.2099502086639404,0.8590500354766846
1728651077612628200,1.096628173828125,9.604050636291504,-2.11395001411438,0.7630500197410583
1728651077622233600,1.106233642578125,9.646950721740723,-2.0689501762390137,0.8070000410079956
1728651077631838700,1.115838623046875,9.867000579833984,-2.1570000648498535,0.7630500197410583
1728651077641443800,1.12544384765625,9.673050880432129,-2.260050058364868,0.6340500116348267
1728651077651049000,1.135049072265625,9.550950050354004,-2.083050012588501,0.8419500589370728
1728651077660654000,1.144654052734375,9.75,-2.182950019836426,0.9190500378608704
1728651077670259500,1.154259521484375,9.79800033569336,-2.3370001316070557,0.9019500613212585
1728651077679864600,1.163864501953125,9.609000205993652,-2.290950059890747,0.9169500470161438
1728651077689469700,1.1734697265625,9.574950218200684,-2.200050115585327,0.8470500111579895
1728651077699074800,1.18307470703125,9.652050018310547,-2.158950090408325,0.8689500689506531
1728651077708680000,1.192679931640625,9.642000198364258,-2.1570000648498535,0.7990500330924988
1728651077718285300,1.202285400390625,9.676050186157227,-2.143050193786621,0.8640000224113464
1728651077727890200,1.21189013671875,9.625950813293457,-2.1570000648498535,0.8470500111579895
1728651077737495300,1.221495361328125,9.448050498962402,-2.152050018310547,0.9960000514984131
1728651077747100700,1.2311005859375,9.565950393676758,-2.1859500408172607,1.1149500608444214
1728651077756705800,1.240705810546875,9.717000007629395,-2.3010001182556152,1.0960500240325928
1728651077766311000,1.250310791015625,9.82395076751709,-2.332050085067749,1.1700000762939453
1728651077775916000,1.259916015625,9.748050689697266,-2.344050168991089,1.1509500741958618
1728651077785521200,1.269521240234375,9.754950523376465,-2.3179500102996826,1.0840500593185425
1728651077795126500,1.27912646484375,9.781050682067871,-2.2740001678466797,1.015950083732605
1728651077804731600,1.288731689453125,9.609000205993652,-2.272050142288208,0.9930000305175781
1728651077814336800,1.298336669921875,9.570000648498535,-2.205000162124634,0.9430500268936157
1728651077823942000,1.30794189453125,9.616050720214844,-2.1690001487731934,0.9019500613212585
1728651077833547000,1.317547119140625,9.666000366210938,-2.1979501247406006,0.89805006980896
1728651077843152400,1.32715234375,9.664050102233887,-2.2740001678466797,0.8040000200271606
1728651077852757500,1.336757568359375,9.796050071716309,-2.253000020980835,0.7969500422477722
1728651077862362600,1.346362548828125,9.622950553894043,-2.2480502128601074,0.895050048828125
1728651077871967700,1.3559677734375,9.53895092010498,-2.2669501304626465,0.9430500268936157
1728651077881572900,1.36557275390625,9.642000198364258,-2.2860000133514404,0.9690000414848328
1728651077891178000,1.375177978515625,9.625950813293457,-2.2770001888275146,0.984000027179718
1728651077900783400,1.384783447265625,9.654000282287598,-2.290950059890747,0.9690000414848328
1728651077910388500,1.394388427734375,9.742950439453125,-2.3080501556396484,0.9310500621795654
1728651077919993600,1.40399365234375,9.702000617980957,-2.2770001888275146,0.8880000710487366
1728651077929598700,1.4135986328125,9.520050048828125,-2.2240500450134277,0.8830500245094299
1728651077939204000,1.4232041015625,9.45300006866455,-2.2390501499176025,0.9169500470161438
1728651077948809200,1.432809326171875,9.585000038146973,-2.25,0.9190500378608704
1728651077958414300,1.442414306640625,9.625950813293457,-2.242950201034546,0.9190500378608704
1728651077968019500,1.45201953125,9.79800033569336,-2.281949996948242,0.8899500370025635
1728651077977624600,1.46162451171875,9.807000160217285,-2.253000020980835,0.909000039100647
1728651077987229700,1.471229736328125,9.75195026397705,-2.272050142288208,0.9310500621795654
1728651077996835000,1.4808349609375,9.634950637817383,-2.2699501514434814,0.9720000624656677
1728651078006440000,1.49043994140625,9.558000564575195,-2.242950201034546,0.9570000171661377
1728651078016045300,1.50004541015625,9.544050216674805,-2.221950054168701,0.9600000381469727
1728651078025650400,1.509650390625,9.705000877380371,-2.1859500408172607,0.9049500226974487
1728651078035255600,1.519255615234375,9.78600025177002,-2.16195011138916,0.8470500111579895
1728651078044861000,1.52886083984375,9.78600025177002,-2.1790502071380615,0.8400000333786011
1728651078054466000,1.538466064453125,9.628050804138184,-2.1739501953125,0.8470500111579895
1728651078064071000,1.54807080078125,9.440999984741211,-2.152050018310547,0.8779500126838684
1728651078073676300,1.55767626953125,9.505950927734375,-2.1910500526428223,0.9019500613212585
1728651078083281400,1.567281494140625,9.556050300598145,-2.1790502071380615,0.9139500260353088
1728651078092886800,1.57688671875,9.56100082397461,-2.1570000648498535,0.8880000710487366
1728651078102492000,1.586491943359375,9.724050521850586,-2.1259500980377197,0.8380500674247742
1728651078112097000,1.596096923828125,9.714000701904297,-2.1310501098632812,0.8380500674247742
1728651078121702100,1.6057021484375,9.694950103759766,-2.1670501232147217,0.8020500540733337
1728651078131307300,1.615307373046875,9.77595043182373,-2.193000078201294,0.7990500330924988
1728651078140912600,1.62491259765625,9.80505084991455,-2.205000162124634,0.7950000166893005
1728651078150517500,1.634517578125,9.661050796508789,-2.1949501037597656,0.9259500503540039
1728651078160123000,1.644122802734375,9.652050018310547,-2.2270500659942627,0.9600000381469727
1728651078169728000,1.65372802734375,9.802950859069824,-2.245950222015381,0.9670500755310059
1728651078179333000,1.6633330078125,9.766950607299805,-2.215050220489502,0.9769500494003296
1728651078188938500,1.6729384765625,9.505950927734375,-2.1859500408172607,0.9550500512123108
1728651078198543600,1.682543701171875,9.541950225830078,-2.1640501022338867,0.921000063419342
1728651078208148700,1.692148681640625,9.745050430297852,-2.180999994277954,0.8860500454902649
1728651078217753900,1.70175390625,9.682950019836426,-2.180999994277954,0.9049500226974487
1728651078227359200,1.711359130859375,9.658950805664062,-2.2390501499176025,0.895050048828125
1728651078236964400,1.72096435546875,9.702000617980957,-2.2860000133514404,0.8880000710487366
1728651078246569700,1.73056982421875,9.733050346374512,-2.322000026702881,0.8860500454902649
1728651078256174600,1.740174560546875,9.727950096130371,-2.31000018119812,0.9240000247955322
1728651078265779700,1.74977978515625,9.621000289916992,-2.205000162124634,0.9430500268936157
1728651078275385000,1.759385009765625,9.550950050354004,-2.2240500450134277,0.984000027179718
1728651078284990200,1.768990234375,9.553950309753418,-2.1910500526428223,0.9910500645637512
1728651078294595300,1.77859521484375,9.586950302124023,-2.2099502086639404,1.0200001001358032
1728651078304200400,1.788200439453125,9.697050094604492,-2.2360501289367676,1.0150500535964966
1728651078313805800,1.797805908203125,9.661050796508789,-2.2290000915527344,1.0459500551223755
1728651078323411000,1.807410888671875,9.613950729370117,-2.2579500675201416,1.0410000085830688
1728651078333016000,1.81701611328125,9.700050354003906,-2.242950201034546,0.9960000514984131
1728651078342621200,1.82662109375,9.694950103759766,-2.245950222015381,1.0150500535964966
1728651078352226300,1.836226318359375,9.745050430297852,-2.2890000343322754,1.0339500904083252
1728651078361831400,1.84583154296875,9.714000701904297,-2.320050001144409,1.0840500593185425
1728651078371436800,1.855436767578125,9.592050552368164,-2.3149502277374268,1.102950096130371
1728651078381042000,1.8650419921875,9.616050720214844,-2.3389501571655273,1.111050009727478
1728651078390647000,1.87464697265625,9.718950271606445,-2.350950002670288,1.1080501079559326
1728651078400252200,1.884252197265625,9.688050270080566,-2.350950002670288,1.1590501070022583
1728651078409857300,1.893857177734375,9.633000373840332,-2.284050226211548,1.1179500818252563
1728651078419462400,1.90346240234375,9.541950225830078,-2.272050142288208,1.1370000839233398
1728651078429067800,1.91306787109375,9.490950584411621,-2.2960500717163086,1.1490000486373901
1728651078438673000,1.9226728515625,9.594000816345215,-2.305950164794922,1.1320500373840332
1728651078448278000,1.932278076171875,9.669000625610352,-2.305950164794922,1.111050009727478
1728651078457883100,1.941883056640625,9.781050682067871,-2.3370001316070557,1.1080501079559326
1728651078467488500,1.951488525390625,9.766950607299805,-2.3580000400543213,1.1010000705718994
1728651078477093600,1.96109375,9.733050346374512,-2.3940000534057617,1.0960500240325928
1728651078486698800,1.97069873046875,9.616050720214844,-2.3749501705169678,1.1490000486373901
1728651078496304000,1.98030419921875,9.52695083618164,-2.3269500732421875,1.1749500036239624
1728651078505909000,1.989908935546875,9.529950141906738,-2.3269500732421875,1.1820000410079956
1728651078515514400,1.999514404296875,9.547050476074219,-2.341050148010254,1.2139500379562378
1728651078525119500,2.009119384765625,9.568050384521484,-2.3560500144958496,1.221000075340271
1728651078534724600,2.018724609375,9.601950645446777,-2.281949996948242,1.180050015449524
1728651078544330000,2.028330078125,9.77400016784668,-2.3370001316070557,1.1440500020980835
1728651078553934800,2.037934814453125,9.739950180053711,-2.2960500717163086,1.0909500122070312
1728651078563540000,2.0475400390625,9.642000198364258,-2.2699501514434814,1.0750499963760376
1728651078573145300,2.057145263671875,9.625950813293457,-2.3370001316070557,1.051050066947937
1728651078582750500,2.06675048828125,9.666000366210938,-2.3530499935150146,1.0579500198364258
1728651078592355600,2.07635546875,9.606000900268555,-2.3560500144958496,1.0720500946044922
1728651078601961000,2.0859609375,9.609000205993652,-2.3389501571655273,1.0890001058578491
1728651078611565800,2.09556591796875,9.693000793457031,-2.3340001106262207,1.1230500936508179
1728651078621171200,2.105171142578125,9.601950645446777,-2.2960500717163086,1.1490000486373901
1728651078630776300,2.1147763671875,9.601950645446777,-2.325000047683716,1.141950011253357
1728651078640381400,2.12438134765625,9.585000038146973,-2.3340001106262207,1.1130000352859497
1728651078649986800,2.13398681640625,9.57300090789795,-2.3560500144958496,1.1269500255584717
1728651078659591700,2.143591796875,9.580050468444824,-2.3340001106262207,1.078950047492981
1728651078669197000,2.153197021484375,9.585000038146973,-2.313000202178955,1.1370000839233398
1728651078678802200,2.16280224609375,9.769050598144531,-2.325000047683716,1.0909500122070312
1728651078688407300,2.1724072265625,9.81195068359375,-2.341050148010254,1.120050072669983
1728651078698012700,2.1820126953125,9.721050262451172,-2.3580000400543213,1.1269500255584717
1728651078707617800,2.19161767578125,9.592050552368164,-2.362950086593628,1.120050072669983
1728651078717223000,2.201222900390625,9.700050354003906,-2.3580000400543213,1.1539500951766968
1728651078726828000,2.210828125,9.784050941467285,-2.370000123977661,1.1850000619888306
1728651078736433400,2.220433349609375,9.693000793457031,-2.3460001945495605,1.1590501070022583
1728651078746038500,2.23003857421875,9.51300048828125,-2.322000026702881,1.1820000410079956
1728651078755643600,2.2396435546875,9.409950256347656,-2.3389501571655273,1.1820000410079956
1728651078765249000,2.2492490234375,9.585000038146973,-2.3610000610351562,1.1370000839233398
1728651078774854100,2.258854248046875,9.690000534057617,-2.3680500984191895,1.1299500465393066
1728651078784459300,2.268459228515625,9.709050178527832,-2.3650500774383545,1.1059499979019165
1728651078794064400,2.278064453125,9.748050689697266,-2.3530499935150146,1.068000078201294
1728651078803669500,2.28766943359375,9.681000709533691,-2.3389501571655273,1.055999994277954
1728651078813274600,2.297274658203125,9.714000701904297,-2.3460001945495605,1.0890001058578491
1728651078822880000,2.3068798828125,9.609000205993652,-2.373000144958496,1.1059499979019165
1728651078832485000,2.316485107421875,9.613950729370117,-2.3490002155303955,1.125
1728651078842090200,2.32609033203125,9.622950553894043,-2.31000018119812,1.1389501094818115
1728651078851695400,2.3356953125,9.547050476074219,-2.2980000972747803,1.1370000839233398
1728651078861300700,2.34530078125,9.547050476074219,-2.3179500102996826,1.1509500741958618
1728651078870905900,2.35490576171875,9.697050094604492,-2.2960500717163086,1.0939500331878662
1728651078880511000,2.364510986328125,9.733050346374512,-2.322000026702881,1.0410000085830688
1728651078890116400,2.374116455078125,9.586950302124023,-2.2770001888275146,1.0320000648498535
1728651078899721200,2.38372119140625,9.613950729370117,-2.2980000972747803,1.0270500183105469
1728651078909326600,2.39332666015625,9.613950729370117,-2.2669501304626465,0.9979500770568848
1728651078918931700,2.402931640625,9.738000869750977,-2.272050142288208,1.0339500904083252
1728651078928537000,2.412537109375,9.606000900268555,-2.2579500675201416,1.0600500106811523
1728651078938142200,2.42214208984375,9.535050392150879,-2.272050142288208,1.0630500316619873
1728651078947747300,2.431747314453125,9.657000541687012,-2.2770001888275146,1.0210500955581665
1728651078957352400,2.4413525390625,9.673050880432129,-2.265000104904175,0.9859500527381897
1728651078966957600,2.45095751953125,9.664050102233887,-2.2770001888275146,0.9670500755310059
1728651078976562700,2.460562744140625,9.63705062866211,-2.241000175476074,0.9619500637054443
1728651078986168000,2.47016796875,9.597000122070312,-2.2390501499176025,0.984000027179718
1728651078995773200,2.479773193359375,9.609000205993652,-2.2789502143859863,1.055999994277954
1728651079005378600,2.489378662109375,9.705000877380371,-2.2699501514434814,1.0440000295639038
1728651079014983700,2.498983642578125,9.693000793457031,-2.25,1.0870500802993774
1728651079024588800,2.5085888671875,9.562950134277344,-2.2890000343322754,1.1080501079559326
1728651079034194000,2.51819384765625,9.562950134277344,-2.305950164794922,1.0890001058578491
1728651079043799300,2.52779931640625,9.610950469970703,-2.313000202178955,1.0840500593185425
1728651079053404400,2.537404296875,9.594000816345215,-2.322000026702881,1.0720500946044922
1728651079063009500,2.547009521484375,9.613950729370117,-2.320050001144409,1.0440000295639038
1728651079072615000,2.556614990234375,9.666000366210938,-2.3490002155303955,1.0870500802993774
1728651079082219800,2.5662197265625,9.646950721740723,-2.3680500984191895,1.0939500331878662
1728651079091825200,2.5758251953125,9.580050468444824,-2.341050148010254,1.120050072669983
1728651079101430300,2.58543017578125,9.616050720214844,-2.3269500732421875,1.1269500255584717
1728651079111035600,2.59503564453125,9.75,-2.350950002670288,1.1269500255584717
1728651079120640800,2.604640869140625,9.702000617980957,-2.3610000610351562,1.1490000486373901
1728651079130246000,2.614245849609375,9.621000289916992,-2.3680500984191895,1.1440500020980835
1728651079139851000,2.62385107421875,9.589950561523438,-2.3680500984191895,1.1490000486373901
1728651079149456400,2.633456298828125,9.645000457763672,-2.3370001316070557,1.0990500450134277
1728651079159061500,2.6430615234375,9.609000205993652,-2.2960500717163086,1.1230500936508179
1728651079168666600,2.65266650390625,9.556050300598145,-2.325000047683716,1.141950011253357
1728651079178271700,2.662271728515625,9.681000709533691,-2.322000026702881,1.111050009727478
1728651079187877000,2.671877197265625,9.76200008392334,-2.3560500144958496,1.1320500373840332
1728651079197482200,2.681482177734375,9.565950393676758,-2.329050064086914,1.0720500946044922
1728651079207087400,2.69108740234375,9.478950500488281,-2.302950143814087,1.0339500904083252
1728651079216692700,2.700692626953125,9.601950645446777,-2.284050226211548,1.0270500183105469
1728651079226297600,2.710297607421875,9.678000450134277,-2.284050226211548,1.0990500450134277
1728651079235903200,2.7199033203125,9.697050094604492,-2.293950080871582,1.1320500373840332
1728651079245508000,2.729508056640625,9.64905071258545,-2.3080501556396484,1.1470500230789185
1728651079255113500,2.739113525390625,9.645000457763672,-2.3610000610351562,1.1149500608444214
1728651079264718600,2.748718505859375,9.678000450134277,-2.370000123977661,1.1149500608444214
1728651079274324000,2.758323974609375,9.669000625610352,-2.3610000610351562,1.1370000839233398
1728651079283929000,2.76792919921875,9.712050437927246,-2.320050001144409,1.0770000219345093
1728651079293534200,2.7775341796875,9.51300048828125,-2.320050001144409,1.1149500608444214
1728651079303139300,2.787139404296875,9.76395034790039,-2.419950008392334,1.0939500331878662
1728651079312744400,2.796744384765625,9.678000450134277,-2.362950086593628,1.111050009727478
1728651079322349800,2.806349853515625,9.618000030517578,-2.3560500144958496,1.1010000705718994
1728651079331955000,2.815954833984375,9.673050880432129,-2.3560500144958496,1.0990500450134277
1728651079341560300,2.825560302734375,9.640050888061523,-2.325000047683716,1.1350500583648682
1728651079351165400,2.83516552734375,9.613950729370117,-2.3269500732421875,1.141950011253357
1728651079360770600,2.8447705078125,9.634950637817383,-2.3010001182556152,1.102950096130371
1728651079370376000,2.8543759765625,9.694950103759766,-2.332050085067749,1.081950068473816
1728651079379980800,2.863980712890625,9.682950019836426,-2.3370001316070557,1.0890001058578491
1728651079389586200,2.873586181640625,9.640050888061523,-2.3650500774383545,1.0890001058578491
1728651079399191300,2.88319140625,9.664050102233887,-2.362950086593628,1.1130000352859497
1728651079408796400,2.89279638671875,9.645000457763672,-2.3650500774383545,1.1269500255584717
1728651079418401800,2.90240185546875,9.640050888061523,-2.3370001316070557,1.1490000486373901
1728651079428007000,2.9120068359375,9.594000816345215,-2.3560500144958496,1.141950011253357
1728651079437612000,2.921612060546875,9.568050384521484,-2.344050168991089,1.1179500818252563
1728651079447217400,2.931217529296875,9.544050216674805,-2.332050085067749,1.1080501079559326
1728651079456822500,2.940822509765625,9.634950637817383,-2.3149502277374268,1.0890001058578491
1728651079466427600,2.950427734375,9.706950187683105,-2.320050001144409,1.1299500465393066
1728651079476032800,2.96003271484375,9.634950637817383,-2.3530499935150146,1.1130000352859497
1728651079485638000,2.969637939453125,9.622950553894043,-2.3370001316070557,1.0870500802993774
1728651079495243300,2.9792431640625,9.601950645446777,-2.3010001182556152,1.102950096130371
1728651079504848400,2.988848388671875,9.565950393676758,-2.272050142288208,1.1230500936508179
1728651079514453500,2.99845361328125,9.652050018310547,-2.290950059890747,1.0960500240325928
1728651079524058600,3.00805859375,9.64905071258545,-2.3340001106262207,1.0890001058578491
1728651079533664000,3.0176640625,9.621000289916992,-2.39205002784729,1.1059499979019165
1728651079543269000,3.02726904296875,9.613950729370117,-2.40405011177063,1.125
1728651079552874200,3.036874267578125,9.628050804138184,-2.3869500160217285,1.078950047492981
1728651079562479400,3.046479248046875,9.669000625610352,-2.3460001945495605,1.0840500593185425
1728651079572084700,3.056084716796875,9.709050178527832,-2.332050085067749,1.1320500373840332
1728651079581689900,3.06568994140625,9.654000282287598,-2.3490002155303955,1.1320500373840332
1728651079591295000,3.075294921875,9.657000541687012,-2.3770501613616943,1.1389501094818115
1728651079600900400,3.084900390625,9.621000289916992,-2.3970000743865967,1.120050072669983
1728651079610505500,3.09450537109375,9.594000816345215,-2.3770501613616943,1.0939500331878662
1728651079620110600,3.104110595703125,9.57300090789795,-2.3749501705169678,1.0960500240325928
1728651079629716000,3.113716064453125,9.550950050354004,-2.3389501571655273,1.1299500465393066
1728651079639321000,3.123321044921875,9.610950469970703,-2.3490002155303955,1.1470500230789185
1728651079648926200,3.13292626953125,9.618000030517578,-2.373000144958496,1.1320500373840332
1728651079658531600,3.142531494140625,9.553950309753418,-2.3869500160217285,1.1730000972747803
1728651079668136700,3.15213671875,9.585000038146973,-2.401050090789795,1.1509500741958618
1728651079677741800,3.161741943359375,9.654000282287598,-2.3869500160217285,1.1509500741958618
1728651079687347000,3.171346923828125,9.64905071258545,-2.3800501823425293,1.125
1728651079696952300,3.180952392578125,9.642000198364258,-2.4060001373291016,1.1730000972747803
1728651079706557400,3.190557373046875,9.739950180053711,-2.3970000743865967,1.1560500860214233
1728651079716162800,3.200162841796875,9.544050216674805,-2.382000207901001,1.1509500741958618
1728651079725768000,3.209767822265625,9.535050392150879,-2.3770501613616943,1.1269500255584717
1728651079735373300,3.219373291015625,9.645000457763672,-2.4079501628875732,1.1440500020980835
1728651079744978400,3.228978515625,9.652050018310547,-2.39205002784729,1.204050064086914
1728651079754583600,3.23858349609375,9.586950302124023,-2.389050006866455,1.204050064086914
1728651079764188700,3.248188720703125,9.688050270080566,-2.3989500999450684,1.1680500507354736
1728651079773794000,3.2577939453125,9.790950775146484,-2.3970000743865967,1.125
1728651079783399200,3.267399169921875,9.721050262451172,-2.40405011177063,1.1490000486373901
1728651079793004300,3.27700439453125,9.523050308227539,-2.4079501628875732,1.1610000133514404
1728651079802609700,3.286609619140625,9.520050048828125,-2.3869500160217285,1.1470500230789185
1728651079812214800,3.29621484375,9.589950561523438,-2.3530499935150146,1.1970000267028809
1728651079821820200,3.305820068359375,9.613950729370117,-2.3610000610351562,1.1700000762939453
1728651079831425300,3.31542529296875,9.64905071258545,-2.3650500774383545,1.1590501070022583
1728651079841030400,3.325030517578125,9.621000289916992,-2.410950183868408,1.1920500993728638
1728651079850635500,3.334635498046875,9.598950386047363,-2.4250500202178955,1.1850000619888306
1728651079860240600,3.34424072265625,9.589950561523438,-2.3770501613616943,1.1560500860214233
1728651079869846000,3.353845947265625,9.724050521850586,-2.362950086593628,1.1749500036239624
1728651079879451100,3.363451171875,9.769050598144531,-2.3970000743865967,1.1749500036239624
1728651079889056300,3.37305615234375,9.657000541687012,-2.422950029373169,1.1749500036239624
1728651079898661600,3.38266162109375,9.54900074005127,-2.401050090789795,1.1820000410079956
1728651079908266800,3.392266845703125,9.475050926208496,-2.3530499935150146,1.1869500875473022
1728651079917872000,3.4018720703125,9.688050270080566,-2.3800501823425293,1.1269500255584717
1728651079927477200,3.411477294921875,9.790950775146484,-2.401050090789795,1.1179500818252563
1728651079937082400,3.421082275390625,9.714000701904297,-2.4400501251220703,1.1350500583648682
1728651079946687700,3.430687744140625,9.547050476074219,-2.442000150680542,1.1389501094818115
1728651079956292900,3.44029296875,9.420000076293945,-2.4180002212524414,1.1490000486373901
1728651079965898000,3.44989794921875,9.49905014038086,-2.3749501705169678,1.1610000133514404
1728651079975503400,3.45950341796875,9.64905071258545,-2.3869500160217285,1.1730000972747803
1728651079985108200,3.469108154296875,9.714000701904297,-2.39205002784729,1.2019500732421875
1728651079994713600,3.478713623046875,9.657000541687012,-2.373000144958496,1.1560500860214233
1728651080004318700,3.488318603515625,9.714000701904297,-2.39205002784729,1.1700000762939453
1728651080013924000,3.497924072265625,9.690000534057617,-2.3770501613616943,1.1509500741958618
1728651080023529200,3.507529296875,9.565950393676758,-2.3389501571655273,1.1490000486373901
1728651080033134600,3.517134521484375,9.628050804138184,-2.325000047683716,1.1179500818252563
1728651080042739700,3.52673974609375,9.56100082397461,-2.305950164794922,1.1370000839233398
1728651080052344800,3.5363447265625,9.517950057983398,-2.302950143814087,1.1590501070022583
1728651080061950200,3.5459501953125,9.598950386047363,-2.3749501705169678,1.1350500583648682
1728651080071555300,3.555555419921875,9.769050598144531,-2.3940000534057617,1.0939500331878662
1728651080081160400,3.565160400390625,9.772050857543945,-2.422950029373169,1.051050066947937
1728651080090765800,3.574765869140625,9.697050094604492,-2.410950183868408,1.1299500465393066
1728651080100371000,3.584370849609375,9.56100082397461,-2.3610000610351562,1.180050015449524
1728651080109976000,3.59397607421875,9.646950721740723,-2.385000228881836,1.2300000190734863
1728651080119581400,3.60358154296875,9.906000137329102,-2.4180002212524414,1.1680500507354736
1728651080129186600,3.6131865234375,9.48900032043457,-2.313000202178955,1.102950096130371
1728651080138791700,3.622791748046875,9.48705005645752,-2.4079501628875732,1.141950011253357
1728651080148397000,3.63239697265625,9.445950508117676,-2.3940000534057617,1.0750499963760376
1728651080158002200,3.642002197265625,9.427050590515137,-2.3650500774383545,1.1389501094818115
1728651080167607600,3.651607666015625,9.448050498962402,-2.4280500411987305,1.1899501085281372
1728651080177212700,3.661212646484375,9.610950469970703,-2.454000234603882,1.2280501127243042
1728651080186817800,3.67081787109375,9.826950073242188,-2.491950035095215,1.194000005722046
1728651080196423200,3.680423095703125,9.891000747680664,-2.5159502029418945,1.2090001106262207
1728651080206028300,3.6900283203125,9.760050773620605,-2.461050033569336,1.225950002670288
1728651080215633400,3.69963330078125,9.472050666809082,-2.4250500202178955,1.2490500211715698
1728651080225238800,3.70923876953125,9.337950706481934,-2.3560500144958496,1.2520500421524048
1728651080234844000,3.718843994140625,9.384000778198242,-2.3490002155303955,1.2109500169754028
1728651080244449300,3.72844921875,9.645000457763672,-2.3989500999450684,1.1749500036239624
1728651080254054400,3.738054443359375,9.807000160217285,-2.4079501628875732,1.141950011253357
1728651080263659500,3.747659423828125,9.705000877380371,-2.3869500160217285,1.1299500465393066
1728651080273264600,3.7572646484375,9.568050384521484,-2.325000047683716,1.1230500936508179
1728651080282870000,3.7668701171875,9.412050247192383,-2.313000202178955,1.1730000972747803
1728651080292475100,3.77647509765625,9.412050247192383,-2.31000018119812,1.221000075340271
1728651080302080300,3.786080322265625,9.472050666809082,-2.3389501571655273,1.234950065612793
1728651080311685600,3.795685546875,9.570000648498535,-2.3490002155303955,1.2229501008987427
1728651080321290800,3.805290771484375,9.646950721740723,-2.3650500774383545,1.2109500169754028
1728651080330896100,3.814896240234375,9.550950050354004,-2.3770501613616943,1.2229501008987427
1728651080340501200,3.824501220703125,9.49905014038086,-2.4079501628875732,1.204050064086914
1728651080350106400,3.8341064453125,9.51300048828125,-2.4060001373291016,1.1700000762939453
1728651080359711700,3.843711669921875,9.53895092010498,-2.385000228881836,1.194000005722046
1728651080369316900,3.85331689453125,9.553950309753418,-2.3940000534057617,1.221000075340271
1728651080378922200,3.862922119140625,9.658950805664062,-2.4180002212524414,1.221000075340271
1728651080388527400,3.87252734375,9.690000534057617,-2.464050054550171,1.1610000133514404
1728651080398132700,3.8821328125,9.645000457763672,-2.4589500427246094,1.1700000762939453
1728651080407737900,3.89173779296875,9.469950675964355,-2.3940000534057617,1.1850000619888306
1728651080417343200,3.90134326171875,9.379050254821777,-2.344050168991089,1.2109500169754028
1728651080426948000,3.910947998046875,9.472050666809082,-2.385000228881836,1.2139500379562378
1728651080436553500,3.920553466796875,9.654000282287598,-2.4370501041412354,1.2109500169754028
1728651080446158600,3.93015869140625,9.63705062866211,-2.4439501762390137,1.225950002670288
1728651080455764000,3.939763916015625,9.508050918579102,-2.4400501251220703,1.2280501127243042
1728651080465369000,3.949369140625,9.52695083618164,-2.422950029373169,1.2570000886917114
1728651080474974200,3.95897412109375,9.681000709533691,-2.4180002212524414,1.2229501008987427
1728651080484579600,3.96857958984375,9.688050270080566,-2.3970000743865967,1.2570000886917114
1728651080494184700,3.978184814453125,9.652050018310547,-2.3869500160217285,1.336050033569336
1728651080503790000,3.9877900390625,9.577950477600098,-2.3970000743865967,1.3240500688552856
1728651080513395200,3.997395263671875,9.53700065612793,-2.410950183868408,1.2780001163482666
1728651080523000600,4.00700048828125,9.556050300598145,-2.4589500427246094,1.281000018119812
1728651080532605700,4.016605712890625,9.594000816345215,-2.3800501823425293,1.221000075340271
1728651080542210800,4.0262109375,9.625950813293457,-2.373000144958496,1.2570000886917114
1728651080551816200,4.035816162109375,9.594000816345215,-2.3940000534057617,1.3450500965118408
1728651080561421300,4.04542138671875,9.381000518798828,-2.272050142288208,1.7359501123428345
1728651080571026700,4.055026611328125,9.742950439453125,-2.55495023727417,1.1440500020980835
1728651080580631800,4.0646318359375,9.574950218200684,-2.4079501628875732,1.2109500169754028
1728651080590237000,4.07423681640625,9.553950309753418,-2.4370501041412354,1.276050090789795
1728651080599842000,4.083842041015625,9.736050605773926,-2.490000009536743,1.2450000047683716
1728651080609447200,4.093447265625,9.604050636291504,-2.4439501762390137,1.2060000896453857
1728651080619052500,4.103052490234375,9.57300090789795,-2.470950126647949,1.225950002670288
1728651080628657700,4.11265771484375,9.48900032043457,-2.4180002212524414,1.2139500379562378
1728651080638262800,4.1222626953125,9.508050918579102,-2.3989500999450684,1.2570000886917114
1728651080647868200,4.1318681640625,9.693000793457031,-2.4060001373291016,1.3570500612258911
1728651080657473300,4.141473388671875,9.78795051574707,-2.4370501041412354,1.374000072479248
1728651080667078700,4.15107861328125,9.594000816345215,-2.434950113296509,1.3639500141143799
1728651080676683800,4.160683837890625,9.466950416564941,-2.419950008392334,1.3240500688552856
1728651080686289200,4.1702890625,9.594000816345215,-2.4060001373291016,1.2570000886917114
1728651080695894300,4.179894287109375,9.616050720214844,-2.389050006866455,1.1899501085281372
1728651080705499400,4.18949951171875,9.556050300598145,-2.3940000534057617,1.0530000925064087
1728651080715104500,4.1991044921875,9.393000602722168,-2.3460001945495605,1.2610501050949097
1728651080724710000,4.2087099609375,9.379050254821777,-2.362950086593628,1.258950114250183
1728651080734315000,4.21831494140625,9.529950141906738,-2.419950008392334,1.2690000534057617
1728651080743920400,4.22792041015625,9.630000114440918,-2.4130501747131348,1.2330000400543213
1728651080753525500,4.237525390625,9.666000366210938,-2.434950113296509,1.2400500774383545
1728651080763131000,4.247130859375,9.582000732421875,-2.430000066757202,1.2060000896453857
1728651080772735700,4.25673583984375,9.601950645446777,-2.4060001373291016,1.2540000677108765
1728651080782341000,4.266341064453125,9.640050888061523,-2.4280500411987305,1.2420001029968262
1728651080791946200,4.2759462890625,9.633000373840332,-2.4370501041412354,1.2829500436782837
1728651080801551600,4.285551513671875,9.685050010681152,-2.464050054550171,1.2930001020431519
1728651080811156700,4.29515673828125,9.54900074005127,-2.5470001697540283,1.1779500246047974
1728651080820761900,4.304761962890625,9.478950500488281,-2.69100022315979,1.4269500970840454
1728651080830367200,4.3143671875,9.738000869750977,-2.0779500007629395,1.1899501085281372
1728651080839972400,4.323972412109375,9.535050392150879,-2.322000026702881,1.1560500860214233
1728651080849577700,4.33357763671875,9.654000282287598,-2.4130501747131348,1.3260000944137573
1728651080859182800,4.343182861328125,9.5110502243042,-2.40405011177063,1.3140000104904175
1728651080868788000,4.3527880859375,9.475050926208496,-2.385000228881836,1.1820000410079956
1728651080878393300,4.362393310546875,9.63705062866211,-2.3770501613616943,1.2400500774383545
1728651080887998500,4.37199853515625,9.535050392150879,-2.341050148010254,1.234950065612793
1728651080897603800,4.381603759765625,9.652050018310547,-2.362950086593628,1.2160500288009644
1728651080907209000,4.391208984375,9.700050354003906,-2.3610000610351562,1.2420001029968262
1728651080916814000,4.40081396484375,9.610950469970703,-2.3610000610351562,1.2060000896453857
1728651080926419200,4.410419189453125,9.613950729370117,-2.3610000610351562,1.264050006866455
1728651080936024300,4.4200244140625,9.598950386047363,-2.370000123977661,1.2570000886917114
1728651080945629700,4.429629638671875,9.601950645446777,-2.401050090789795,1.2709500789642334
1728651080955234800,4.43923486328125,9.654000282287598,-2.419950008392334,1.2420001029968262
1728651080964840200,4.448840087890625,9.630000114440918,-2.3869500160217285,1.2400500774383545
1728651080974445300,4.4584453125,9.56100082397461,-2.382000207901001,1.221000075340271
1728651080984050400,4.468050537109375,9.52695083618164,-2.350950002670288,1.2060000896453857
1728651080993655800,4.47765576171875,9.553950309753418,-2.3560500144958496,1.2090001106262207
1728651081003261000,4.487260986328125,9.550950050354004,-2.382000207901001,1.225950002670288
1728651081012866000,4.496865966796875,9.628050804138184,-2.4079501628875732,1.2520500421524048
1728651081022471400,4.506471435546875,9.646950721740723,-2.40405011177063,1.2850500345230103
1728651081032076500,4.51607666015625,9.63705062866211,-2.430000066757202,1.27305006980896
1728651081041682000,4.525681884765625,9.634950637817383,-2.4250500202178955,1.3050000667572021
1728651081051287000,4.535287109375,9.570000648498535,-2.45205020904541,1.2660000324249268
1728651081060892400,4.544892333984375,9.613950729370117,-2.4780001640319824,1.2450000047683716
1728651081070497500,4.55449755859375,9.597000122070312,-2.479950189590454,1.2090001106262207
1728651081080102700,4.5641025390625,9.47700023651123,-2.401050090789795,1.3140000104904175
1728651081089707800,4.573707763671875,9.417000770568848,-2.45205020904541,1.3759500980377197
1728651081099313200,4.583313232421875,9.547050476074219,-2.3610000610351562,1.3789501190185547
1728651081108918300,4.592918212890625,9.697050094604492,-2.4130501747131348,1.3450500965118408
1728651081118523400,4.6025234375,9.64905071258545,-2.401050090789795,1.3639500141143799
1728651081128128800,4.612128662109375,9.63705062866211,-2.3770501613616943,1.327950119972229
1728651081137734000,4.62173388671875,9.666000366210938,-2.3610000610351562,1.3020000457763672
1728651081147339300,4.63133935546875,9.621000289916992,-2.322000026702881,1.2930001020431519
1728651081156944400,4.6409443359375,9.586950302124023,-2.3460001945495605,1.27305006980896
1728651081166549500,4.650549560546875,9.613950729370117,-2.442000150680542,1.3090500831604004
1728651081176155000,4.66015478515625,9.606000900268555,-2.4589500427246094,1.29705011844635
1728651081185760000,4.669760009765625,9.658950805664062,-2.464050054550171,1.3170000314712524
1728651081195365400,4.679365478515625,9.379050254821777,-2.410950183868408,1.3170000314712524
1728651081204970500,4.688970458984375,9.630000114440918,-2.5279500484466553,1.3480501174926758
1728651081214575900,4.698575927734375,9.673050880432129,-2.491950035095215,1.374000072479248
1728651081224181000,4.708180908203125,9.589950561523438,-2.49495005607605,1.3810501098632812
1728651081233786000,4.7177861328125,9.580050468444824,-2.551950216293335,1.3999500274658203
1728651081243391500,4.7273916015625,9.562950134277344,-2.5189502239227295,1.38795006275177
1728651081252996400,4.736996337890625,9.484050750732422,-2.5069501399993896,1.3999500274658203
1728651081262601700,4.746601806640625,9.448050498962402,-2.5069501399993896,1.350000023841858
1728651081272206800,4.756206787109375,9.553950309753418,-2.562000036239624,1.3549500703811646
1728651081281812200,4.765812255859375,9.535050392150879,-2.578050136566162,1.3570500612258911
1728651081291417300,4.775417236328125,9.700050354003906,-2.6050500869750977,1.3960500955581665
1728651081301022700,4.785022705078125,9.669000625610352,-2.599950075149536,1.4310001134872437
1728651081310627800,4.7946279296875,9.54900074005127,-2.571000099182129,1.4479501247406006
1728651081320233000,4.80423291015625,9.5149507522583,-2.559000015258789,1.4550000429153442
1728651081329838000,4.813838134765625,9.53895092010498,-2.514000177383423,1.4410500526428223
1728651081339443500,4.823443359375,9.661050796508789,-2.5189502239227295,1.434000015258789
1728651081349048600,4.833048583984375,9.685050010681152,-2.571000099182129,1.4170501232147217
1728651081358654000,4.842654052734375,9.666000366210938,-2.5759501457214355,1.4389500617980957
1728651081368259000,4.852259033203125,9.609000205993652,-2.5639500617980957,1.4310001134872437
1728651081377864200,4.8618642578125,9.613950729370117,-2.539950132369995,1.4650501012802124
1728651081387469600,4.871469482421875,9.577950477600098,-2.533050060272217,1.5010501146316528
1728651081397074700,4.88107470703125,9.553950309753418,-2.502000093460083,1.4820001125335693
1728651081406680000,4.89068017578125,9.49905014038086,-2.4780001640319824,1.4530500173568726
1728651081416285200,4.90028515625,9.451050758361816,-2.4679501056671143,1.4580000638961792
1728651081425890300,4.909890380859375,9.421950340270996,-2.4679501056671143,1.443000078201294
1728651081435495700,4.91949560546875,9.5110502243042,-2.4880502223968506,1.3690500259399414
1728651081445100800,4.929100830078125,9.714000701904297,-2.4760501384735107,1.3210500478744507
1728651081454706200,4.9387060546875,9.76200008392334,-2.4850502014160156,1.3309500217437744
1728651081464311300,4.948311279296875,9.697050094604492,-2.499000072479248,1.3690500259399414
1728651081473916400,4.95791650390625,9.565950393676758,-2.499000072479248,1.4050500392913818
1728651081483521500,4.967521484375,9.456000328063965,-2.5350000858306885,1.4149500131607056
1728651081493127000,4.977126953125,9.535050392150879,-2.5039501190185547,1.4310001134872437
1728651081502732000,4.98673193359375,9.535050392150879,-2.49495005607605,1.4170501232147217
1728651081512337400,4.99633740234375,9.556050300598145,-2.4880502223968506,1.38795006275177
1728651081521942500,5.005942626953125,9.63705062866211,-2.5069501399993896,1.3519500494003296
1728651081531548000,5.0155478515625,9.598950386047363,-2.434950113296509,1.3020000457763672
1728651081541153000,5.025153076171875,9.481950759887695,-2.4439501762390137,1.29705011844635
1728651081550758100,5.034758056640625,9.45300006866455,-2.422950029373169,1.2930001020431519
1728651081560363500,5.044363525390625,9.52500057220459,-2.422950029373169,1.294950008392334
1728651081569968600,5.05396875,9.53700065612793,-2.410950183868408,1.336050033569336
1728651081579574000,5.063573974609375,9.532050132751465,-2.40405011177063,1.350000023841858
1728651081589179100,5.07317919921875,9.586950302124023,-2.4130501747131348,1.3759500980377197
1728651081598784300,5.0827841796875,9.633000373840332,-2.454000234603882,1.3860000371932983
1728651081608389600,5.0923896484375,9.610950469970703,-2.4679501056671143,1.3860000371932983
1728651081617994800,5.101994873046875,9.606000900268555,-2.4970500469207764,1.3840500116348267
1728651081627600100,5.11160009765625,9.475050926208496,-2.4880502223968506,1.3930500745773315
1728651081637205200,5.121205322265625,9.424050331115723,-2.49495005607605,1.3810501098632812
1728651081646810600,5.130810546875,9.505950927734375,-2.5350000858306885,1.3860000371932983
1728651081656415500,5.14041552734375,9.5110502243042,-2.5260000228881836,1.4119501113891602
1728651081666020600,5.1500205078125,9.592050552368164,-2.539950132369995,1.434000015258789
1728651081675626200,5.159626220703125,9.616050720214844,-2.55495023727417,1.467000126838684
1728651081685231000,5.169231201171875,9.49905014038086,-2.571000099182129,1.5130500793457031
1728651081694836500,5.17883642578125,9.532050132751465,-2.511000156402588,1.4530500173568726
1728651081704441600,5.188441650390625,9.53895092010498,-2.490000009536743,1.4269500970840454
1728651081714047000,5.198046875,9.493950843811035,-2.482950210571289,1.4170501232147217
1728651081723652000,5.207652099609375,9.544050216674805,-2.5279500484466553,1.3930500745773315
1728651081733257200,5.21725732421875,9.654000282287598,-2.551950216293335,1.3759500980377197
1728651081747664100,5.2316640625,9.616050720214844,-2.590050220489502,1.4029500484466553
1728651081757269200,5.241269287109375,9.558000564575195,-2.5830001831054688,1.446000099182129
1728651081766874600,5.25087451171875,9.48900032043457,-2.593050241470337,1.4550000429153442
1728651081776479700,5.260479736328125,9.592050552368164,-2.6050500869750977,1.5010501146316528
1728651081786085000,5.270085205078125,9.634950637817383,-2.634000062942505,1.5100500583648682
1728651081795690200,5.279690185546875,9.616050720214844,-2.6050500869750977,1.5180001258850098
1728651081805295400,5.28929541015625,9.568050384521484,-2.599950075149536,1.4820001125335693
1728651081814900700,5.298900634765625,9.544050216674805,-2.54295015335083,1.446000099182129
1728651081824505900,5.308505859375,9.444000244140625,-2.5039501190185547,1.390950083732605
1728651081834111200,5.318111328125,9.484050750732422,-2.5350000858306885,1.3860000371932983
1728651081843716400,5.32771630859375,9.544050216674805,-2.5500001907348633,1.4190000295639038
1728651081853321500,5.337321533203125,9.463050842285156,-2.533050060272217,1.4599500894546509
1728651081862926800,5.3469267578125,9.391050338745117,-2.5669500827789307,1.467000126838684
1728651081872532000,5.356531982421875,9.64905071258545,-2.5879502296447754,1.4749500751495361
1728651081882137300,5.366137451171875,9.742950439453125,-2.593050241470337,1.4580000638961792
1728651081891742500,5.375742431640625,9.645000457763672,-2.5759501457214355,1.4190000295639038
1728651081901347800,5.385347900390625,9.598950386047363,-2.5690500736236572,1.390950083732605
1728651081910953000,5.394952880859375,9.429000854492188,-2.5230000019073486,1.3450500965118408
1728651081920558000,5.40455810546875,9.336000442504883,-2.502000093460083,1.333050012588501
1728651081930163500,5.41416357421875,9.343050003051758,-2.4469501972198486,1.3240500688552856
1728651081939768600,5.4237685546875,9.397950172424316,-2.454000234603882,1.3399500846862793
1728651081949374000,5.4333740234375,9.586950302124023,-2.4780001640319824,1.3620001077651978
1728651081958979000,5.44297900390625,9.697050094604492,-2.514000177383423,1.3789501190185547
1728651081968584400,5.45258447265625,9.601950645446777,-2.5470001697540283,1.4149500131607056
1728651081978189600,5.462189453125,9.547050476074219,-2.5350000858306885,1.3720500469207764
1728651081987795000,5.471794921875,9.53700065612793,-2.49495005607605,1.3240500688552856
1728651081997400000,5.481400146484375,9.54900074005127,-2.4970500469207764,1.3090500831604004
1728651082007005200,5.491005126953125,9.496050834655762,-2.490000009536743,1.3170000314712524
1728651082016610600,5.500610595703125,9.331050872802734,-2.4679501056671143,1.3620001077651978
1728651082026215700,5.510215576171875,9.321000099182129,-2.5039501190185547,1.3810501098632812
1728651082035821000,5.519821044921875,9.472050666809082,-2.5260000228881836,1.3960500955581665
1728651082045426200,5.52942626953125,9.669000625610352,-2.5500001907348633,1.429050087928772
1728651082055031600,5.539031494140625,9.75195026397705,-2.5470001697540283,1.3999500274658203
1728651082064636700,5.54863671875,9.646950721740723,-2.5470001697540283,1.4239500761032104
1728651082074241800,5.55824169921875,9.532050132751465,-2.5350000858306885,1.4239500761032104
1728651082083847200,5.56784716796875,9.463050842285156,-2.539950132369995,1.4479501247406006
1728651082093452300,5.577452392578125,9.51300048828125,-2.5380001068115234,1.4190000295639038
1728651082103057700,5.5870576171875,9.586950302124023,-2.521050214767456,1.4239500761032104
1728651082112662500,5.59666259765625,9.604050636291504,-2.5450501441955566,1.4190000295639038
1728651082122268000,5.606267822265625,9.544050216674805,-2.5500001907348633,1.4080500602722168
1728651082131873300,5.615873291015625,9.46500015258789,-2.562000036239624,1.4080500602722168
1728651082141478400,5.625478515625,9.574950218200684,-2.5669500827789307,1.4530500173568726
1728651082151083800,5.635083740234375,9.666000366210938,-2.6070001125335693,1.4869500398635864
1728651082160689000,5.64468896484375,9.652050018310547,-2.6260502338409424,1.4940000772476196
1728651082170294000,5.6542939453125,9.56100082397461,-2.581050157546997,1.4770500659942627
1728651082179899400,5.6638994140625,9.592050552368164,-2.5500001907348633,1.4629501104354858
1728651082189504500,5.67350439453125,9.606000900268555,-2.5230000019073486,1.446000099182129
1728651082199110000,5.68310986328125,9.56100082397461,-2.5309500694274902,1.4530500173568726
1728651082208715000,5.692715087890625,9.622950553894043,-2.5500001907348633,1.4389500617980957
1728651082218320100,5.702320068359375,9.558000564575195,-2.5570502281188965,1.4080500602722168
1728651082227925500,5.711925537109375,9.432000160217285,-2.5260000228881836,1.434000015258789
1728651082237530600,5.721530517578125,9.451050758361816,-2.491950035095215,1.4790000915527344
1728651082247136000,5.731135986328125,9.633000373840332,-2.479950189590454,1.4980500936508179
1728651082256741000,5.7407412109375,9.75195026397705,-2.49495005607605,1.4940000772476196
1728651082266346200,5.75034619140625,9.730950355529785,-2.5470001697540283,1.5010501146316528
1728651082275951600,5.75995166015625,9.601950645446777,-2.5230000019073486,1.4389500617980957
1728651082285556700,5.769556640625,9.51300048828125,-2.4469501972198486,1.4119501113891602
1728651082295162000,5.779162109375,9.523050308227539,-2.45205020904541,1.4269500970840454
1728651082304767500,5.788767578125,9.550950050354004,-2.4660000801086426,1.429050087928772
1728651082314372600,5.79837255859375,9.721050262451172,-2.511000156402588,1.4269500970840454
1728651082323977700,5.807977783203125,9.721050262451172,-2.5189502239227295,1.4550000429153442
1728651082333583000,5.8175830078125,9.616050720214844,-2.5230000019073486,1.4410500526428223
1728651082343188200,5.827188232421875,9.654000282287598,-2.491950035095215,1.4239500761032104
1728651082352793600,5.836793701171875,9.621000289916992,-2.491950035095215,1.434000015258789
1728651082362398700,5.846398681640625,9.523050308227539,-2.473050117492676,1.4220000505447388
1728651082372004000,5.856004150390625,9.562950134277344,-2.4850502014160156,1.4269500970840454
1728651082381609200,5.865609130859375,9.633000373840332,-2.5189502239227295,1.4149500131607056
1728651082391214600,5.875214599609375,9.574950218200684,-2.4880502223968506,1.4050500392913818
1728651082400819700,5.88481982421875,9.553950309753418,-2.4400501251220703,1.4389500617980957
1728651082410425000,5.894425048828125,9.553950309753418,-2.4559500217437744,1.4940000772476196
1728651082420030200,5.9040302734375,9.654000282287598,-2.464050054550171,1.4959501028060913
1728651082429635300,5.91363525390625,9.693000793457031,-2.490000009536743,1.4959501028060913
1728651082439240700,5.92324072265625,9.652050018310547,-2.511000156402588,1.4719500541687012
1728651082448845800,5.932845703125,9.589950561523438,-2.514000177383423,1.443000078201294
1728651082458451200,5.942451171875,9.54900074005127,-2.4850502014160156,1.429050087928772
1728651082468056300,5.952056396484375,9.508050918579102,-2.4679501056671143,1.4650501012802124
1728651082477662000,5.961661865234375,9.490950584411621,-2.473050117492676,1.4749500751495361
1728651082487267000,5.97126708984375,9.570000648498535,-2.479950189590454,1.4940000772476196
1728651082496872200,5.9808720703125,9.670950889587402,-2.499000072479248,1.4650501012802124
1728651082506477600,5.9904775390625,9.709050178527832,-2.54295015335083,1.4359500408172607
1728651082516082700,6.000082763671875,9.697050094604492,-2.5380001068115234,1.4170501232147217
1728651082525688000,6.00968798828125,9.640050888061523,-2.514000177383423,1.4310001134872437
1728651082535293200,6.019293212890625,9.601950645446777,-2.5189502239227295,1.434000015258789
1728651082544898600,6.028898681640625,9.604050636291504,-2.5039501190185547,1.446000099182129
1728651082554503700,6.038503662109375,9.451050758361816,-2.4559500217437744,1.4410500526428223
1728651082564109000,6.048109130859375,9.432000160217285,-2.4469501972198486,1.4749500751495361
1728651082573714200,6.057714111328125,9.613950729370117,-2.470950126647949,1.489050030708313
1728651082583319300,6.0673193359375,9.727950096130371,-2.4880502223968506,1.50600004196167
1728651082592924700,6.076924560546875,9.724050521850586,-2.49495005607605,1.4959501028060913
1728651082602529800,6.08652978515625,9.52695083618164,-2.490000009536743,1.429050087928772
1728651082612135200,6.09613525390625,9.448050498962402,-2.454000234603882,1.5079500675201416
1728651082621740300,6.105740234375,9.558000564575195,-2.4589500427246094,1.5730500221252441
1728651082631345700,6.115345703125,9.594000816345215,-2.434950113296509,1.5319501161575317
1728651082640950800,6.12495068359375,9.642000198364258,-2.45205020904541,1.4770500659942627
1728651082650556200,6.13455615234375,9.606000900268555,-2.49495005607605,1.4410500526428223
1728651082660161300,6.144161376953125,9.609000205993652,-2.490000009536743,1.434000015258789
1728651082669766400,6.153766357421875,9.505950927734375,-2.4760501384735107,1.4389500617980957
1728651082679371800,6.163371826171875,9.436050415039062,-2.482950210571289,1.4650501012802124
1728651082688977000,6.172976806640625,9.616050720214844,-2.5189502239227295,1.503000020980835
1728651082698582300,6.182582275390625,9.64905071258545,-2.5380001068115234,1.5079500675201416
1728651082708187600,6.192187744140625,9.5110502243042,-2.54295015335083,1.4719500541687012
1728651082717793000,6.20179296875,9.5149507522583,-2.5450501441955566,1.4869500398635864
1728651082727398100,6.211398193359375,9.50100040435791,-2.539950132369995,1.5079500675201416
1728651082737003500,6.22100341796875,9.535050392150879,-2.499000072479248,1.4959501028060913
1728651082746608600,6.230608642578125,9.702000617980957,-2.551950216293335,1.4839500188827515
1728651082756214000,6.240214111328125,9.727950096130371,-2.6170501708984375,1.4959501028060913
1728651082765819100,6.249819091796875,9.585000038146973,-2.5860002040863037,1.467000126838684
1728651082775424500,6.259424560546875,9.529950141906738,-2.5639500617980957,1.4479501247406006
1728651082785029600,6.269029541015625,9.478950500488281,-2.4880502223968506,1.4269500970840454
1728651082794635000,6.278635009765625,9.457950592041016,-2.449050188064575,1.4310001134872437
1728651082804240100,6.288240234375,9.502950668334961,-2.482950210571289,1.4650501012802124
1728651082813845200,6.29784521484375,9.451050758361816,-2.482950210571289,1.4599500894546509
1728651082823450600,6.30745068359375,9.50100040435791,-2.502000093460083,1.446000099182129
1728651082833055700,6.3170556640625,9.52695083618164,-2.473050117492676,1.374000072479248
1728651082842661400,6.326661376953125,9.681000709533691,-2.419950008392334,1.3840500116348267
1728651082852266200,6.336266357421875,9.562950134277344,-2.442000150680542,1.3789501190185547
1728651082861871900,6.345871826171875,9.541950225830078,-2.4559500217437744,1.4190000295639038
1728651082871477000,6.35547705078125,9.48705005645752,-2.479950189590454,1.4220000505447388
1728651082881082000,6.36508203125,9.535050392150879,-2.4559500217437744,1.4310001134872437
1728651082890687500,6.3746875,9.609000205993652,-2.4469501972198486,1.3999500274658203
1728651082900292600,6.384292724609375,9.598950386047363,-2.4589500427246094,1.3860000371932983
1728651082909898000,6.39389794921875,9.5110502243042,-2.461050033569336,1.360050082206726
1728651082919503000,6.403503173828125,9.333000183105469,-2.4130501747131348,1.3450500965118408
1728651082929108500,6.4131083984375,9.307050704956055,-2.341050148010254,1.3090500831604004
1728651082938713600,6.422713623046875,9.396000862121582,-2.3460001945495605,1.3069500923156738
1728651082948319000,6.432319091796875,9.469950675964355,-2.3989500999450684,1.3309500217437744
1728651082957924000,6.441924072265625,9.558000564575195,-2.4660000801086426,1.3309500217437744
1728651082967529500,6.451529541015625,9.535050392150879,-2.4559500217437744,1.3140000104904175
1728651082977134800,6.461134765625,9.57300090789795,-2.4160501956939697,1.3020000457763672
1728651082986739700,6.47073974609375,9.63705062866211,-2.431950092315674,1.3429501056671143
1728651082996345300,6.480345458984375,9.700050354003906,-2.4469501972198486,1.3789501190185547
1728651083005950500,6.489950439453125,9.682950019836426,-2.502000093460083,1.38795006275177
1728651083015555800,6.499555908203125,9.622950553894043,-2.479950189590454,1.3120501041412354
1728651083025161000,6.509160888671875,9.436050415039062,-2.4439501762390137,1.281000018119812
1728651083034766000,6.51876611328125,9.385950088500977,-2.4280500411987305,1.294950008392334
1728651083044371500,6.528371337890625,9.412050247192383,-2.4280500411987305,1.3140000104904175
1728651083053976800,6.537976806640625,9.403050422668457,-2.454000234603882,1.3480501174926758
1728651083063582000,6.54758203125,9.429000854492188,-2.4760501384735107,1.3840500116348267
1728651083073187000,6.55718701171875,9.577950477600098,-2.4559500217437744,1.3690500259399414
1728651083082792400,6.56679248046875,9.670950889587402,-2.473050117492676,1.3930500745773315
1728651083092397800,6.576397705078125,9.621000289916992,-2.491950035095215,1.38795006275177
1728651083102003200,6.586003173828125,9.606000900268555,-2.464050054550171,1.3720500469207764
1728651083111608300,6.5956083984375,9.53700065612793,-2.4180002212524414,1.3480501174926758
1728651083121213700,6.605213623046875,9.393000602722168,-2.3680500984191895,1.3240500688552856
1728651083130818800,6.61481884765625,9.372000694274902,-2.3389501571655273,1.3120501041412354
1728651083140424000,6.624423828125,9.45300006866455,-2.3560500144958496,1.333050012588501
1728651083150029300,6.634029296875,9.574950218200684,-2.3610000610351562,1.360050082206726
1728651083159634700,6.643634765625,9.609000205993652,-2.3610000610351562,1.3999500274658203
1728651083169239800,6.65323974609375,9.681000709533691,-2.373000144958496,1.4269500970840454
1728651083178845000,6.662844970703125,9.669000625610352,-2.4180002212524414,1.4650501012802124
1728651083188450300,6.6724501953125,9.562950134277344,-2.4280500411987305,1.4719500541687012
1728651083198055400,6.682055419921875,9.610950469970703,-2.4400501251220703,1.4599500894546509
1728651083207661000,6.6916611328125,9.645000457763672,-2.4250500202178955,1.3789501190185547
1728651083217266200,6.70126611328125,9.57300090789795,-2.4079501628875732,1.3399500846862793
1728651083226871600,6.71087158203125,9.469950675964355,-2.39205002784729,1.29705011844635
1728651083236476700,6.7204765625,9.466950416564941,-2.370000123977661,1.290000081062317
1728651083246082000,6.73008203125,9.440999984741211,-2.3770501613616943,1.3260000944137573
1728651083255687200,6.739687255859375,9.553950309753418,-2.3650500774383545,1.360050082206726
1728651083265292500,6.74929248046875,9.891000747680664,-2.45205020904541,1.4029500484466553
1728651083274897700,6.758897705078125,9.853050231933594,-2.5380001068115234,1.443000078201294
1728651083284502800,6.768502685546875,9.736050605773926,-2.539950132369995,1.4359500408172607
1728651083294108400,6.7781083984375,9.688050270080566,-2.499000072479248,1.3690500259399414
1728651083303713300,6.78771337890625,9.57300090789795,-2.4370501041412354,1.290000081062317
1728651083313319000,6.79731884765625,9.5110502243042,-2.40405011177063,1.2450000047683716
1728651083322924000,6.806924072265625,9.490950584411621,-2.3869500160217285,1.2420001029968262
1728651083332529400,6.816529296875,9.448050498962402,-2.3869500160217285,1.2690000534057617
1728651083342134500,6.826134521484375,9.54900074005127,-2.3800501823425293,1.258950114250183
1728651083351740000,6.835739990234375,9.700050354003906,-2.3460001945495605,1.29705011844635
1728651083361345000,6.845344970703125,9.705000877380371,-2.3680500984191895,1.29705011844635
1728651083370950400,6.854950439453125,9.690000534057617,-2.3970000743865967,1.3140000104904175
1728651083380555500,6.864555419921875,9.562950134277344,-2.3650500774383545,1.3309500217437744
1728651083390161000,6.874160888671875,9.56100082397461,-2.313000202178955,1.3789501190185547
1728651083399766300,6.883766357421875,9.622950553894043,-2.305950164794922,1.3789501190185547
1728651083409371400,6.893371337890625,9.78795051574707,-2.3149502277374268,1.3789501190185547
1728651083418976800,6.902976806640625,9.841050148010254,-2.3970000743865967,1.3669500350952148
1728651083428582000,6.912581787109375,9.766950607299805,-2.431950092315674,1.333050012588501
1728651083438187300,6.922187255859375,9.577950477600098,-2.389050006866455,1.281000018119812
1728651083447792400,6.93179248046875,9.565950393676758,-2.3580000400543213,1.2520500421524048
1728651083457397500,6.9413974609375,9.53700065612793,-2.3179500102996826,1.2610501050949097
1728651083467003000,6.9510029296875,9.529950141906738,-2.313000202178955,1.3669500350952148
1728651083476608300,6.960608154296875,9.52500057220459,-2.3800501823425293,1.258950114250183
1728651083486213600,6.970213623046875,9.50100040435791,-2.40405011177063,1.3669500350952148
1728651083495818800,6.97981884765625,9.705000877380371,-2.434950113296509,1.3720500469207764
1728651083505424100,6.989424072265625,9.865050315856934,-2.4679501056671143,1.327950119972229
1728651083515029200,6.999029296875,9.831000328063965,-2.491950035095215,1.27305006980896
1728651083524634600,7.008634521484375,9.681000709533691,-2.482950210571289,1.3090500831604004
1728651083534239700,7.01823974609375,9.445950508117676,-2.45205020904541,1.3170000314712524
1728651083543845000,7.02784521484375,9.333000183105469,-2.4079501628875732,1.333050012588501
1728651083553450500,7.037450439453125,9.49905014038086,-2.40405011177063,1.374000072479248
1728651083563055600,7.0470556640625,9.505950927734375,-2.401050090789795,1.434000015258789
1728651083572661000,7.056660888671875,9.56100082397461,-2.373000144958496,1.434000015258789
1728651083582266000,7.06626611328125,9.622950553894043,-2.362950086593628,1.4190000295639038
1728651083591871500,7.07587158203125,9.702000617980957,-2.3940000534057617,1.38795006275177
1728651083601476900,7.085476806640625,9.666000366210938,-2.4130501747131348,1.3720500469207764
1728651083611082000,7.09508203125,9.51300048828125,-2.3989500999450684,1.3399500846862793
1728651083620687400,7.104687255859375,9.445950508117676,-2.3749501705169678,1.3240500688552856
1728651083630292700,7.114292724609375,9.420000076293945,-2.344050168991089,1.3240500688552856
1728651083639897900,7.12389794921875,9.5149507522583,-2.3580000400543213,1.3429501056671143
1728651083649503200,7.133503173828125,9.574950218200684,-2.3989500999450684,1.3519500494003296
1728651083659108400,7.1431083984375,9.64905071258545,-2.4250500202178955,1.3690500259399414
1728651083668713700,7.152713623046875,9.553950309753418,-2.389050006866455,1.3450500965118408
1728651083678318800,7.16231884765625,9.550950050354004,-2.4060001373291016,1.3309500217437744
1728651083687924200,7.17192431640625,9.535050392150879,-2.419950008392334,1.3260000944137573
1728651083697529300,7.181529296875,9.597000122070312,-2.4180002212524414,1.2690000534057617
1728651083707134700,7.191134765625,9.574950218200684,-2.3770501613616943,1.194000005722046
1728651083716740000,7.200739990234375,9.47700023651123,-2.302950143814087,1.1869500875473022
1728651083726345200,7.21034521484375,9.433950424194336,-2.3080501556396484,1.2139500379562378
1728651083735950600,7.21995068359375,9.385950088500977,-2.305950164794922,1.2610501050949097
1728651083745555700,7.2295556640625,9.369000434875488,-2.3389501571655273,1.2829500436782837
1728651083755161000,7.2391611328125,9.388050079345703,-2.341050148010254,1.3189500570297241
1728651083764766200,7.24876611328125,9.472050666809082,-2.2669501304626465,1.29705011844635
1728651083774371600,7.25837158203125,9.609000205993652,-2.3080501556396484,1.3090500831604004
1728651083783976700,7.267976806640625,9.678000450134277,-2.3650500774383545,1.3090500831604004
1728651083793582000,7.27758203125,9.535050392150879,-2.344050168991089,1.2660000324249268
1728651083803187500,7.2871875,9.51300048828125,-2.350950002670288,1.2420001029968262
1728651083812792800,7.296792724609375,9.541950225830078,-2.3080501556396484,1.237950086593628
1728651083822398000,7.30639794921875,9.403050422668457,-2.325000047683716,1.2229501008987427
1728651083832003000,7.316003173828125,9.345000267028809,-2.3580000400543213,1.2330000400543213
1728651083841608400,7.3256083984375,9.415050506591797,-2.320050001144409,1.2109500169754028
1728651083851213800,7.3352138671875,9.52695083618164,-2.325000047683716,1.237950086593628
1728651083860819000,7.34481884765625,9.589950561523438,-2.3269500732421875,1.2300000190734863
1728651083870424300,7.35442431640625,9.630000114440918,-2.4060001373291016,1.2850500345230103
1728651083880029400,7.364029541015625,9.50100040435791,-2.4079501628875732,1.2880500555038452
1728651083889634800,7.373634765625,9.312000274658203,-2.3460001945495605,1.3020000457763672
1728651083899240000,7.383239990234375,9.217950820922852,-2.284050226211548,1.3000500202178955
1728651083908845300,7.39284521484375,9.349950790405273,-2.2789502143859863,1.3020000457763672
1728651083918450700,7.40245068359375,9.5110502243042,-2.3269500732421875,1.294950008392334
1728651083928056000,7.41205615234375,9.582000732421875,-2.3869500160217285,1.3189500570297241
1728651083937661200,7.4216611328125,9.547050476074219,-2.385000228881836,1.2540000677108765
1728651083947266600,7.4312666015625,9.57300090789795,-2.3800501823425293,1.2709500789642334
1728651083956871700,7.44087158203125,9.5110502243042,-2.362950086593628,1.2930001020431519
1728651083966477000,7.45047705078125,9.412050247192383,-2.3080501556396484,1.3020000457763672
1728651083976082200,7.460082275390625,9.364950180053711,-2.2960500717163086,1.360050082206726
1728651083985687600,7.4696875,9.298050880432129,-2.2669501304626465,1.3960500955581665
1728651083995292700,7.479292724609375,9.417000770568848,-2.305950164794922,1.38795006275177
1728651084004898000,7.48889794921875,9.585000038146973,-2.3490002155303955,1.3240500688552856
1728651084014503400,7.49850341796875,9.64905071258545,-2.3490002155303955,1.2780001163482666
1728651084024108500,7.508108642578125,9.585000038146973,-2.341050148010254,1.237950086593628
1728651084033714000,7.5177138671875,9.529950141906738,-2.3940000534057617,1.225950002670288
1728651084043319300,7.5273193359375,9.48900032043457,-2.3610000610351562,1.3140000104904175
1728651084052924400,7.53692431640625,9.417000770568848,-2.385000228881836,1.3069500923156738
1728651084062529500,7.546529541015625,9.409950256347656,-2.401050090789795,1.390950083732605
1728651084072135200,7.55613525390625,9.429000854492188,-2.410950183868408,1.3789501190185547
1728651084081740300,7.565740234375,9.568050384521484,-2.4060001373291016,1.4190000295639038
1728651084091345700,7.575345703125,9.676050186157227,-2.3989500999450684,1.3189500570297241
1728651084100950800,7.58495068359375,9.676050186157227,-2.3989500999450684,1.3380000591278076
1728651084110556200,7.59455615234375,9.502950668334961,-2.401050090789795,1.327950119972229
1728651084120161300,7.604161376953125,9.517950057983398,-2.40405011177063,1.336050033569336
1728651084129766700,7.6137666015625,9.432000160217285,-2.362950086593628,1.2930001020431519
1728651084139372000,7.6233720703125,9.460050582885742,-2.3389501571655273,1.3480501174926758
1728651084148977000,7.632976806640625,9.5149507522583,-2.3080501556396484,1.3519500494003296
1728651084158582500,7.64258251953125,9.658950805664062,-2.293950080871582,1.374000072479248
1728651084168187600,7.652187744140625,9.712050437927246,-2.362950086593628,1.3759500980377197
1728651084177793000,7.66179296875,9.724050521850586,-2.3770501613616943,1.3549500703811646
1728651084187398100,7.671398193359375,9.616050720214844,-2.4060001373291016,1.3639500141143799
1728651084197003500,7.68100341796875,9.5110502243042,-2.350950002670288,1.3620001077651978
1728651084206608600,7.690608642578125,9.610950469970703,-2.281949996948242,1.3549500703811646
1728651084216214000,7.700214111328125,9.781050682067871,-2.3269500732421875,1.3549500703811646
1728651084225819400,7.7098193359375,9.690000534057617,-2.3490002155303955,1.327950119972229
1728651084235424500,7.719424560546875,9.541950225830078,-2.341050148010254,1.3090500831604004
1728651084245030000,7.72902978515625,9.594000816345215,-2.313000202178955,1.2850500345230103
1728651084254635000,7.738635009765625,9.700050354003906,-2.3680500984191895,1.3050000667572021
1728651084264240400,7.748240478515625,9.736050605773926,-2.344050168991089,1.3210500478744507
1728651084273845500,7.757845458984375,9.77595043182373,-2.3610000610351562,1.38795006275177
1728651084283451000,7.767450927734375,9.79995059967041,-2.385000228881836,1.333050012588501
1728651084293056000,7.777055908203125,9.618000030517578,-2.373000144958496,1.333050012588501
1728651084302661400,7.786661376953125,9.634950637817383,-2.3749501705169678,1.3090500831604004
1728651084312266500,7.7962666015625,9.724050521850586,-2.3680500984191895,1.27305006980896
1728651084321872100,7.8058720703125,9.673050880432129,-2.3179500102996826,1.237950086593628
1728651084331477200,7.815477294921875,9.52500057220459,-2.2770001888275146,1.2229501008987427
1728651084341082600,7.82508251953125,9.56100082397461,-2.2669501304626465,1.2660000324249268
1728651084350687700,7.834687744140625,9.664050102233887,-2.325000047683716,1.2880500555038452
1728651084360293000,7.844293212890625,9.778950691223145,-2.3370001316070557,1.3000500202178955
1728651084369898200,7.853898193359375,9.727950096130371,-2.3149502277374268,1.3429501056671143
1728651084379503400,7.86350341796875,9.645000457763672,-2.290950059890747,1.38795006275177
1728651084389109000,7.87310888671875,9.574950218200684,-2.245950222015381,1.3759500980377197
1728651084398714000,7.882714111328125,9.54900074005127,-2.203050136566162,1.4080500602722168
1728651084408319500,7.892319580078125,9.5110502243042,-2.230950117111206,1.3930500745773315
1728651084417924600,7.901924560546875,9.633000373840332,-2.3010001182556152,1.3980001211166382
1728651084427530000,7.911530029296875,9.75,-2.3149502277374268,1.3570500612258911
1728651084437135000,7.921135009765625,9.702000617980957,-2.325000047683716,1.3090500831604004
1728651084446740200,7.930740234375,9.609000205993652,-2.2980000972747803,1.294950008392334
1728651084456345600,7.940345703125,9.45300006866455,-2.2669501304626465,1.2690000534057617
1728651084465951000,7.949950927734375,9.481950759887695,-2.2390501499176025,1.29705011844635
1728651084475556400,7.959556396484375,9.714000701904297,-2.341050148010254,1.3140000104904175
1728651084485161500,7.969161376953125,9.730950355529785,-2.3340001106262207,1.3189500570297241
1728651084494766600,7.9787666015625,9.676050186157227,-2.332050085067749,1.3140000104904175
1728651084504372000,7.9883720703125,9.670950889587402,-2.320050001144409,1.2709500789642334
1728651084513977300,7.997977294921875,9.601950645446777,-2.341050148010254,1.2709500789642334
1728651084523582500,8.00758251953125,9.490950584411621,-2.2669501304626465,1.2300000190734863
1728651084533187800,8.017187744140625,9.490950584411621,-2.2480502128601074,1.2490500211715698
1728651084542793000,8.02679296875,9.550950050354004,-2.3149502277374268,1.2490500211715698
1728651084552398300,8.0363984375,9.46500015258789,-2.3080501556396484,1.2300000190734863
1728651084562003700,8.046003662109374,9.424050331115723,-2.2240500450134277,1.2400500774383545
1728651084571608800,8.05560888671875,9.421950340270996,-2.2170000076293945,1.2829500436782837
1728651084581214200,8.065214111328125,9.301950454711914,-2.2290000915527344,1.2520500421524048
1728651084590819300,8.0748193359375,9.456000328063965,-2.180999994277954,1.2850500345230103
1728651084600424700,8.0844248046875,9.52695083618164,-2.2240500450134277,1.3620001077651978
1728651084610029800,8.09402978515625,9.460050582885742,-2.2390501499176025,1.3840500116348267
1728651084619635500,8.103635498046875,9.421950340270996,-2.26200008392334,1.3620001077651978
1728651084629240600,8.113240478515625,9.574950218200684,-2.2699501514434814,1.2850500345230103
1728651084638845700,8.122845703125,9.676050186157227,-2.272050142288208,1.237950086593628
1728651084648451000,8.132451171875,9.535050392150879,-2.2960500717163086,1.2330000400543213
1728651084658056200,8.14205615234375,9.424050331115723,-2.3370001316070557,1.2709500789642334
1728651084667661600,8.15166162109375,9.502950668334961,-2.341050148010254,1.3090500831604004
1728651084677266700,8.1612666015625,9.577950477600098,-2.344050168991089,1.3669500350952148
1728651084686872000,8.1708720703125,9.420000076293945,-2.3490002155303955,1.4149500131607056
1728651084696477400,8.1804775390625,9.223050117492676,-2.385000228881836,1.3860000371932983
1728651084706082800,8.190082763671874,9.24000072479248,-2.344050168991089,1.3999500274658203
1728651084715688000,8.19968798828125,9.148950576782227,-2.401050090789795,1.264050006866455
1728651084725293300,8.209293212890625,9.295050621032715,-2.3460001945495605,1.2850500345230103
1728651084734898400,8.2188984375,9.697050094604492,-2.3650500774383545,1.3120501041412354
1728651084744503800,8.22850390625,9.618000030517578,-2.39205002784729,1.0990500450134277
1728651084754109000,8.23810888671875,9.096000671386719,-2.305950164794922,1.1130000352859497
1728651084763714600,8.247714599609376,9.381000518798828,-2.3490002155303955,1.2690000534057617
1728651084773319400,8.2573193359375,9.57300090789795,-2.3490002155303955,1.3000500202178955
1728651084782924800,8.2669248046875,9.51300048828125,-2.3010001182556152,1.3380000591278076
1728651084792530200,8.2765302734375,9.26205062866211,-2.3490002155303955,1.336050033569336
1728651084802135300,8.28613525390625,9.091950416564941,-2.4250500202178955,1.3840500116348267
1728651084811740700,8.29574072265625,9.211050033569336,-2.401050090789795,1.2880500555038452
1728651084821346000,8.305345947265625,9.288000106811523,-2.3389501571655273,1.29705011844635
1728651084830951200,8.314951171875,9.207000732421875,-2.2890000343322754,1.2829500436782837
1728651084840556300,8.324556396484375,9.379050254821777,-2.2390501499176025,1.2229501008987427
1728651084850162000,8.334161865234375,9.802950859069824,-2.2789502143859863,1.1749500036239624
1728651084859767000,8.34376708984375,9.979950904846191,-2.329050064086914,1.2610501050949097
1728651084869372400,8.353372314453125,9.535050392150879,-2.26200008392334,1.3480501174926758
1728651084878977500,8.3629775390625,9.372000694274902,-2.313000202178955,1.3620001077651978
1728651084888583000,8.3725830078125,9.736050605773926,-2.4559500217437744,1.4700000286102295
1728651084898188000,8.38218798828125,10.192950248718262,-2.5230000019073486,1.4550000429153442
1728651084907793400,8.39179345703125,10.198050498962402,-2.5350000858306885,1.4029500484466553
1728651084917398800,8.401398681640625,9.52695083618164,-2.434950113296509,1.2160500288009644
1728651084927004000,8.41100390625,8.839950561523438,-2.325000047683716,0.9529500603675842
1728651084936609300,8.420609375,8.758950233459473,-2.2069501876831055,1.055999994277954
1728651084946214700,8.430214599609375,9.277950286865234,-2.260050058364868,1.0320000648498535
1728651084955819800,8.43981982421875,10.107000350952148,-2.0779500007629395,1.0360500812530518
1728651084965425000,8.4494248046875,10.581000328063965,-2.464050054550171,1.4080500602722168
1728651084975030300,8.4590302734375,9.77595043182373,-2.449050188064575,1.3519500494003296
1728651084984635600,8.4686357421875,9.630000114440918,-2.5279500484466553,1.3980001211166382
1728651084994241000,8.478240966796875,9.630000114440918,-2.482950210571289,1.3519500494003296
1728651085003846100,8.48784619140625,9.678000450134277,-2.4180002212524414,1.1779500246047974
1728651085013451300,8.497451171875,9.841050148010254,-2.4439501762390137,1.1610000133514404
1728651085023056600,8.507056640625,9.745050430297852,-2.382000207901001,1.1539500951766968
1728651085032662000,8.516662109375,9.63705062866211,-2.3460001945495605,1.1850000619888306
1728651085042267100,8.52626708984375,9.681000709533691,-2.362950086593628,1.2570000886917114
1728651085051872500,8.53587255859375,9.76200008392334,-2.3560500144958496,1.1560500860214233
1728651085061478000,8.545477783203125,9.81705093383789,-2.31000018119812,1.225950002670288
1728651085071083000,8.5550830078125,9.796050071716309,-2.2890000343322754,1.237950086593628
1728651085080688400,8.5646884765625,9.877050399780273,-2.293950080871582,1.294950008392334
1728651085090293500,8.57429345703125,9.946050643920898,-2.305950164794922,1.294950008392334
1728651085099899000,8.58389892578125,9.78795051574707,-2.2960500717163086,1.234950065612793
1728651085109504300,8.593504150390626,9.580050468444824,-2.253000020980835,1.1610000133514404
1728651085119109600,8.603109619140625,9.694950103759766,-2.241000175476074,1.1059499979019165
1728651085128714800,8.61271484375,9.654000282287598,-2.230950117111206,1.0049999952316284
1728651085138320100,8.622320068359375,9.51300048828125,-2.1979501247406006,1.0600500106811523
1728651085147925200,8.63192529296875,9.490950584411621,-2.2069501876831055,1.102950096130371
1728651085157530600,8.641530517578126,9.784050941467285,-2.313000202178955,1.204050064086914
1728651085167136000,8.651135986328125,10.045050621032715,-2.499000072479248,1.27305006980896
1728651085176741000,8.6607412109375,9.78600025177002,-2.521050214767456,1.2450000047683716
1728651085186346500,8.670346435546875,9.448050498962402,-2.422950029373169,1.1869500875473022
1728651085195951600,8.67995166015625,9.586950302124023,-2.332050085067749,1.1490000486373901
1728651085205557000,8.689556884765626,9.693000793457031,-2.2270500659942627,1.180050015449524
1728651085215162000,8.699162109375,9.807000160217285,-2.265000104904175,1.2019500732421875
1728651085224767500,8.708767578125,9.700050354003906,-2.31000018119812,1.29705011844635
1728651085234372900,8.718372802734375,9.598950386047363,-2.4180002212524414,1.290000081062317
1728651085243978000,8.72797802734375,9.678000450134277,-2.434950113296509,1.234950065612793
1728651085253583400,8.737583251953126,9.502950668334961,-2.2789502143859863,1.258950114250183
1728651085263188500,8.7471884765625,9.349950790405273,-2.170950174331665,1.2610501050949097
1728651085272793900,8.7567939453125,9.421950340270996,-2.1259500980377197,1.2330000400543213
1728651085282399000,8.76639892578125,9.601950645446777,-2.1880500316619873,1.336050033569336
1728651085292004600,8.776004638671875,9.664050102233887,-2.382000207901001,1.3690500259399414
1728651085301609700,8.785609619140626,9.56100082397461,-2.4130501747131348,1.3399500846862793
1728651085311215000,8.795215087890625,9.57300090789795,-2.3940000534057617,1.2570000886917114
1728651085320820200,8.8048203125,9.622950553894043,-2.3560500144958496,1.2019500732421875
1728651085330425600,8.814425537109376,9.613950729370117,-2.322000026702881,1.1820000410079956
1728651085340030700,8.82403076171875,9.496050834655762,-2.3340001106262207,1.2019500732421875
1728651085349636400,8.83363623046875,9.397950172424316,-2.370000123977661,1.2690000534057617
1728651085359241500,8.843241455078125,9.405000686645508,-2.401050090789795,1.333050012588501
1728651085368846800,8.852846923828125,9.427050590515137,-2.442000150680542,1.3429501056671143
1728651085378452000,8.862451904296876,9.472050666809082,-2.4130501747131348,1.3380000591278076
1728651085388057300,8.872057373046875,9.523050308227539,-2.3970000743865967,1.2850500345230103
1728651085397662500,8.881662353515624,9.444000244140625,-2.3989500999450684,1.333050012588501
1728651085407267800,8.891267822265625,9.333000183105469,-2.4250500202178955,1.333050012588501
1728651085416873200,8.900873291015625,9.361950874328613,-2.4439501762390137,1.3090500831604004
1728651085426478300,8.910478271484376,9.321000099182129,-2.4760501384735107,1.276050090789795
1728651085436083700,8.920083740234375,9.391050338745117,-2.4400501251220703,1.2469500303268433
1728651085445689000,8.929689208984374,9.372000694274902,-2.362950086593628,1.2280501127243042
1728651085455294500,8.93929443359375,9.340950012207031,-2.3080501556396484,1.2280501127243042
1728651085464899300,8.9488994140625,9.379050254821777,-2.2669501304626465,1.2450000047683716
1728651085474505000,8.9585048828125,9.403050422668457,-2.2860000133514404,1.29705011844635
1728651085484110000,8.968110107421875,9.384000778198242,-2.325000047683716,1.336050033569336
1728651085493715500,8.977715576171875,9.432000160217285,-2.3460001945495605,1.3639500141143799
1728651085503320600,8.987320556640626,9.5110502243042,-2.3610000610351562,1.3549500703811646
1728651085512926000,8.996926025390625,9.553950309753418,-2.3269500732421875,1.3189500570297241
1728651085522531300,9.00653125,9.46500015258789,-2.305950164794922,1.2450000047683716
1728651085532136700,9.01613671875,9.336000442504883,-2.3179500102996826,1.2330000400543213
1728651085541741800,9.025741943359375,9.265950202941895,-2.329050064086914,1.225950002670288
1728651085551347200,9.03534716796875,9.312000274658203,-2.3389501571655273,1.1820000410079956
1728651085560952300,9.044952392578125,9.417000770568848,-2.3370001316070557,1.2109500169754028
1728651085570558000,9.054557861328124,9.388050079345703,-2.3460001945495605,1.2109500169754028
1728651085580163000,9.0641630859375,9.349950790405273,-2.320050001144409,1.225950002670288
1728651085589768400,9.0737685546875,9.463050842285156,-2.344050168991089,1.234950065612793
1728651085599373600,9.08337353515625,9.493950843811035,-2.3340001106262207,1.2490500211715698
1728651085608979000,9.09297900390625,9.372000694274902,-2.322000026702881,1.218000054359436
1728651085618584000,9.102583984375,9.340950012207031,-2.2890000343322754,1.194000005722046
1728651085628189700,9.112189697265626,9.574950218200684,-2.3680500984191895,1.1970000267028809
1728651085637794800,9.121794921875,9.429000854492188,-2.382000207901001,1.1749500036239624
1728651085647400200,9.131400146484374,9.333000183105469,-2.3580000400543213,1.1269500255584717
1728651085657005300,9.14100537109375,9.393000602722168,-2.3460001945495605,1.120050072669983
1728651085666610700,9.150610595703125,9.456000328063965,-2.2890000343322754,1.1490000486373901
1728651085676216000,9.160216064453126,9.547050476074219,-2.265000104904175,1.204050064086914
1728651085685821400,9.169821533203125,9.574950218200684,-2.2740001678466797,1.2280501127243042
1728651085695426600,9.179426513671874,9.448050498962402,-2.2770001888275146,1.2139500379562378
1728651085705032000,9.189031982421875,9.565950393676758,-2.2270500659942627,1.194000005722046
1728651085714637000,9.198636962890625,10.051950454711914,-2.3580000400543213,1.3140000104904175
1728651085724242400,9.208242431640626,10.092000007629395,-2.4780001640319824,1.336050033569336
1728651085733847800,9.217847900390625,9.726000785827637,-2.4079501628875732,1.2709500789642334
1728651085743453200,9.227453125,9.415050506591797,-2.3149502277374268,1.1899501085281372
1728651085753058300,9.237058349609375,9.594000816345215,-2.230950117111206,1.1470500230789185
1728651085762663700,9.24666357421875,9.877050399780273,-2.265000104904175,1.0770000219345093
1728651085772269000,9.25626904296875,10.003950119018555,-2.382000207901001,1.180050015449524
1728651085781874200,9.265874267578125,9.64905071258545,-2.4370501041412354,1.204050064086914
1728651085791479600,9.2754794921875,9.424050331115723,-2.3490002155303955,1.1850000619888306
1728651085801084700,9.285084716796876,9.76200008392334,-2.281949996948242,1.1899501085281372
1728651085810689800,9.294689697265625,9.973050117492676,-2.329050064086914,1.1970000267028809
1728651085820295400,9.30429541015625,9.853050231933594,-2.313000202178955,1.1749500036239624
1728651085829900500,9.313900634765625,9.702000617980957,-2.2980000972747803,1.1179500818252563
1728651085839506000,9.323505859375,9.903000831604004,-2.3800501823425293,1.1149500608444214
1728651085849111000,9.333111083984376,9.922050476074219,-2.4780001640319824,1.068000078201294
1728651085858716400,9.34271630859375,9.706950187683105,-2.5039501190185547,1.081950068473816
1728651085868321800,9.35232177734375,9.702000617980957,-2.4559500217437744,1.1970000267028809
1728651085877927000,9.361927001953125,10.071000099182129,-2.3869500160217285,1.2660000324249268
1728651085887532300,9.3715322265625,10.464000701904297,-2.3800501823425293,1.3570500612258911
1728651085897137700,9.3811376953125,10.243050575256348,-2.449050188064575,1.3980001211166382
1728651085906743000,9.390742919921875,9.796050071716309,-2.5759501457214355,1.3480501174926758
1728651085916348200,9.40034814453125,9.586950302124023,-2.449050188064575,1.194000005722046
1728651085925953500,9.40995361328125,9.84795093536377,-2.3650500774383545,1.1269500255584717
1728651085935558700,9.41955859375,9.913050651550293,-2.410950183868408,1.1680500507354736
1728651085945164000,9.4291640625,9.690000534057617,-2.434950113296509,1.1850000619888306
1728651085954769400,9.438769287109375,9.5149507522583,-2.3010001182556152,1.290000081062317
1728651085964374800,9.448374755859374,9.82395076751709,-2.325000047683716,1.3399500846862793
1728651085973980200,9.457980224609376,9.975000381469727,-2.5309500694274902,1.3450500965118408
1728651085983585300,9.467585205078125,9.496050834655762,-2.49495005607605,1.27305006980896
1728651085993190700,9.477190673828124,9.355050086975098,-2.341050148010254,1.1920500993728638
1728651086002796000,9.486796142578125,9.633000373840332,-2.4180002212524414,1.1320500373840332
1728651086012401200,9.496401123046875,9.586950302124023,-2.502000093460083,1.1730000972747803
1728651086022006500,9.506006591796876,9.367050170898438,-2.5069501399993896,1.258950114250183
1728651086031611600,9.515611572265625,9.630000114440918,-2.509050130844116,1.3570500612258911
1728651086041217300,9.52521728515625,9.943950653076172,-2.5639500617980957,1.434000015258789
1728651086050822400,9.534822509765625,9.754950523376465,-2.5450501441955566,1.38795006275177
1728651086060427800,9.544427734375,9.345000267028809,-2.45205020904541,1.3240500688552856
1728651086070033200,9.554033203125,9.127950668334961,-2.389050006866455,1.2930001020431519
1728651086079638300,9.56363818359375,9.319050788879395,-2.3580000400543213,1.3069500923156738
1728651086089243600,9.57324365234375,9.336000442504883,-2.3490002155303955,1.2930001020431519
1728651086098849000,9.58284912109375,9.277950286865234,-2.332050085067749,1.276050090789795
1728651086108454100,9.5924541015625,9.409950256347656,-2.3650500774383545,1.2930001020431519
1728651086118059500,9.6020595703125,9.47700023651123,-2.3580000400543213,1.2490500211715698
1728651086127664600,9.61166455078125,9.52500057220459,-2.410950183868408,1.2019500732421875
1728651086137270300,9.621270263671875,9.265950202941895,-2.332050085067749,1.165950059890747
1728651086146875400,9.63087548828125,9.112950325012207,-2.215050220489502,1.1680500507354736
1728651086156480800,9.640480712890625,9.417000770568848,-2.253000020980835,1.1269500255584717
1728651086166086000,9.6500859375,9.570000648498535,-2.350950002670288,1.165950059890747
1728651086175691500,9.65969140625,9.466950416564941,-2.3869500160217285,1.1920500993728638
1728651086185296600,9.669296630859375,9.457950592041016,-2.422950029373169,1.1749500036239624
1728651086194902000,9.678902099609376,9.345000267028809,-2.3940000534057617,1.1389501094818115
1728651086204507100,9.688507080078125,9.277950286865234,-2.3580000400543213,1.0579500198364258
1728651086214112800,9.69811279296875,9.283050537109375,-2.2699501514434814,1.0960500240325928
1728651086223718000,9.7077177734375,9.373950004577637,-2.3010001182556152,1.1269500255584717
1728651086233323300,9.7173232421875,9.385950088500977,-2.3560500144958496,1.165950059890747
1728651086242928400,9.726928466796876,9.324000358581543,-2.4079501628875732,1.1610000133514404
1728651086252533800,9.73653369140625,9.304950714111328,-2.4060001373291016,1.1440500020980835
1728651086262139100,9.74613916015625,9.223050117492676,-2.3610000610351562,1.0840500593185425
1728651086271744300,9.755744140625,9.241950035095215,-2.2980000972747803,1.0290000438690186
1728651086281349600,9.765349609375,9.417000770568848,-2.260050058364868,1.0890001058578491
1728651086290954800,9.774954833984374,9.456000328063965,-2.302950143814087,1.1370000839233398
1728651086300560400,9.784560302734375,9.407999992370605,-2.332050085067749,1.1700000762939453
1728651086310165500,9.79416552734375,9.481950759887695,-2.344050168991089,1.1370000839233398
1728651086319771000,9.80377099609375,9.547050476074219,-2.344050168991089,1.125
1728651086329376000,9.8133759765625,9.469950675964355,-2.325000047683716,1.0990500450134277
1728651086338981600,9.822981689453124,9.439050674438477,-2.3010001182556152,1.078950047492981
1728651086348586800,9.832586669921875,9.457950592041016,-2.2290000915527344,1.1470500230789185
1728651086358192000,9.842192138671875,9.553950309753418,-2.265000104904175,1.204050064086914
1728651086367797200,9.85179736328125,9.661050796508789,-2.3370001316070557,1.2420001029968262
1728651086377403000,9.86140283203125,9.598950386047363,-2.382000207901001,1.2450000047683716
1728651086387008000,9.871008056640624,9.50100040435791,-2.385000228881836,1.1700000762939453
1728651086396613400,9.88061328125,9.628050804138184,-2.3680500984191895,1.1389501094818115
1728651086406218500,9.890218505859375,9.52500057220459,-2.320050001144409,1.1350500583648682
1728651086415824100,9.89982421875,9.456000328063965,-2.305950164794922,1.1610000133514404
1728651086425429200,9.90942919921875,9.702000617980957,-2.3530499935150146,1.225950002670288
1728651086435034400,9.919034423828125,9.826950073242188,-2.4079501628875732,1.2610501050949097
1728651086444639700,9.9286396484375,9.793050765991211,-2.45205020904541,1.2420001029968262
1728651086454245400,9.938245361328125,9.634950637817383,-2.3869500160217285,1.2280501127243042
1728651086463850500,9.9478505859375,9.645000457763672,-2.3370001316070557,1.234950065612793
1728651086473455900,9.957455810546875,9.694950103759766,-2.3080501556396484,1.2400500774383545
1728651086483061200,9.967061279296875,9.673050880432129,-2.31000018119812,1.2709500789642334
1728651086492666600,9.97666650390625,9.726000785827637,-2.2740001678466797,1.281000018119812
1728651086502271700,9.986271728515625,9.79995059967041,-2.2549500465393066,1.2780001163482666
1728651086511877000,9.995877197265624,9.874950408935547,-2.2860000133514404,1.221000075340271
1728651086521482200,10.005482177734375,9.730950355529785,-2.241000175476074,1.2229501008987427
1728651086531087600,10.015087646484375,9.705000877380371,-2.2170000076293945,1.2139500379562378
1728651086540693000,10.02469287109375,9.757050514221191,-2.215050220489502,1.2280501127243042
1728651086550298000,10.034298095703125,9.784050941467285,-2.272050142288208,1.2780001163482666
1728651086559903500,10.043903564453124,9.77595043182373,-2.3460001945495605,1.2880500555038452
1728651086569508900,10.0535087890625,9.778950691223145,-2.4180002212524414,1.3170000314712524
1728651086579114200,10.0631142578125,9.727950096130371,-2.4130501747131348,1.294950008392334
1728651086588719400,10.07271923828125,9.858000755310059,-2.3989500999450684,1.2330000400543213
1728651086598325000,10.082324951171875,9.859950065612793,-2.3940000534057617,1.1779500246047974
1728651086607930000,10.09193017578125,9.658950805664062,-2.370000123977661,1.1700000762939453
1728651086617535500,10.101535400390626,9.610950469970703,-2.362950086593628,1.1820000410079956
1728651086627140600,10.111140625,9.628050804138184,-2.382000207901001,1.218000054359436
1728651086636746000,10.12074609375,9.693000793457031,-2.401050090789795,1.2450000047683716
1728651086646351400,10.130351318359375,9.690000534057617,-2.3970000743865967,1.194000005722046
1728651086655956700,10.139956787109375,9.633000373840332,-2.3269500732421875,1.1989500522613525
1728651086665561900,10.149561767578126,9.709050178527832,-2.281949996948242,1.1730000972747803
1728651086675167200,10.159167236328125,9.826950073242188,-2.2699501514434814,1.2160500288009644
1728651086684772600,10.168772705078124,9.688050270080566,-2.3340001106262207,1.2400500774383545
1728651086694378000,10.1783779296875,9.570000648498535,-2.3650500774383545,1.2490500211715698
1728651086703983000,10.187983154296875,9.53895092010498,-2.329050064086914,1.1920500993728638
1728651086713588700,10.197588623046874,9.57300090789795,-2.2669501304626465,1.1539500951766968
1728651086723193900,10.20719384765625,9.532050132751465,-2.2390501499176025,1.1389501094818115
1728651086732799200,10.21679931640625,9.54900074005127,-2.242950201034546,1.1389501094818115
1728651086742404400,10.226404296875,9.592050552368164,-2.253000020980835,1.1820000410079956
1728651086752010000,10.236010009765625,9.460050582885742,-2.332050085067749,1.1899501085281372
1728651086761615000,10.245614990234374,9.391050338745117,-2.3770501613616943,1.2330000400543213
1728651086776024300,10.2600244140625,9.570000648498535,-2.4160501956939697,1.2109500169754028
1728651086785629700,10.269629638671875,9.598950386047363,-2.3770501613616943,1.2139500379562378
1728651086795234800,10.27923486328125,9.568050384521484,-2.3989500999450684,1.1970000267028809
1728651086804840400,10.28884033203125,9.709050178527832,-2.4880502223968506,1.180050015449524
1728651086814445600,10.298445556640624,9.589950561523438,-2.499000072479248,1.1560500860214233
1728651086824051000,10.308051025390625,9.192000389099121,-2.4439501762390137,1.0770000219345093
1728651086833656000,10.317656005859375,9.22095012664795,-2.3149502277374268,1.0270500183105469
1728651086843261400,10.327261474609376,9.325950622558594,-2.2360501289367676,1.055999994277954
1728651086852866800,10.33686669921875,9.328950881958008,-2.1790502071380615,1.0750499963760376
1728651086862472000,10.346471923828124,9.26400089263916,-2.215050220489502,1.0960500240325928
1728651086872077300,10.356077392578126,9.304950714111328,-2.1949501037597656,1.1749500036239624
1728651086881682700,10.3656826171875,9.369000434875488,-2.1259500980377197,1.1970000267028809
1728651086891288000,10.3752880859375,9.694950103759766,-2.1570000648498535,1.2660000324249268
1728651086900893200,10.38489306640625,9.907950401306152,-2.2770001888275146,1.3309500217437744
1728651086910498600,10.39449853515625,9.64905071258545,-2.233950138092041,1.3380000591278076
1728651086920103700,10.404103759765626,9.490950584411621,-2.2390501499176025,1.2660000324249268
1728651086929709300,10.413709228515625,9.547050476074219,-2.221950054168701,1.2400500774383545
1728651086939314400,10.423314453125,9.427050590515137,-2.242950201034546,1.1179500818252563
1728651086948920000,10.432920166015625,9.277950286865234,-2.2099502086639404,1.0410000085830688
1728651086958525200,10.442525146484375,9.361950874328613,-2.290950059890747,1.0840500593185425
1728651086968130600,10.452130615234376,9.337950706481934,-2.293950080871582,1.1320500373840332
1728651086977735700,10.461735595703125,9.321000099182129,-2.2960500717163086,1.1850000619888306
1728651086987341300,10.47134130859375,9.429000854492188,-2.313000202178955,1.2300000190734863
1728651086996946400,10.480946533203126,9.730950355529785,-2.4060001373291016,1.237950086593628
1728651087006551800,10.4905517578125,9.760050773620605,-2.4060001373291016,1.1920500993728638
1728651087016157000,10.500156982421874,9.642000198364258,-2.40405011177063,1.141950011253357
1728651087025762600,10.509762451171875,9.589950561523438,-2.3869500160217285,1.0939500331878662
1728651087035367700,10.51936767578125,9.610950469970703,-2.373000144958496,1.0939500331878662
1728651087044973000,10.52897314453125,9.456000328063965,-2.290950059890747,1.0699501037597656
1728651087054578200,10.538578125,9.469950675964355,-2.272050142288208,1.111050009727478
1728651087064183800,10.548183837890624,9.436050415039062,-2.230950117111206,1.1680500507354736
1728651087073789000,10.557788818359375,9.403050422668457,-2.221950054168701,1.194000005722046
1728651087083394300,10.567394287109375,9.556050300598145,-2.215050220489502,1.2469500303268433
1728651087092999700,10.576999755859376,9.610950469970703,-2.1790502071380615,1.2829500436782837
1728651087102605000,10.58660498046875,9.666000366210938,-2.230950117111206,1.333050012588501
1728651087112210200,10.596210205078124,9.63705062866211,-2.2390501499176025,1.3120501041412354
1728651087121815600,10.605815673828126,9.550950050354004,-2.260050058364868,1.2690000534057617
1728651087131421000,10.6154208984375,9.580050468444824,-2.2890000343322754,1.204050064086914
1728651087141026300,10.6250263671875,9.484050750732422,-2.245950222015381,1.1539500951766968
1728651087150631400,10.63463134765625,9.478950500488281,-2.265000104904175,1.1680500507354736
1728651087160237000,10.644237060546875,9.541950225830078,-2.325000047683716,1.0939500331878662
1728651087169842200,10.65384228515625,9.894000053405762,-2.385000228881836,1.180050015449524
1728651087179447300,10.663447265625,9.706950187683105,-2.4280500411987305,1.0990500450134277
1728651087189053000,10.673052978515624,9.444000244140625,-2.430000066757202,1.1539500951766968
1728651087198658300,10.682658203125,9.547050476074219,-2.3580000400543213,1.1370000839233398
1728651087208263400,10.692263427734375,9.565950393676758,-2.284050226211548,1.120050072669983
1728651087217868800,10.701868896484376,9.558000564575195,-2.290950059890747,1.125
1728651087227474000,10.711473876953125,9.54900074005127,-2.305950164794922,1.1230500936508179
1728651087237079300,10.721079345703124,9.520050048828125,-2.2789502143859863,1.1230500936508179
1728651087246684700,10.7306845703125,9.544050216674805,-2.2549500465393066,1.1130000352859497
1728651087256290000,10.7402900390625,9.633000373840332,-2.2170000076293945,1.1080501079559326
1728651087265895400,10.7498955078125,9.745050430297852,-2.180999994277954,1.0939500331878662
1728651087275500800,10.759500732421875,9.727950096130371,-2.16195011138916,1.0530000925064087
1728651087285106200,10.769106201171875,9.630000114440918,-2.1739501953125,1.0870500802993774
1728651087294711300,10.778711181640626,9.56100082397461,-2.193000078201294,1.0699501037597656
1728651087304316700,10.788316650390625,9.601950645446777,-2.1949501037597656,1.0459500551223755
1728651087313922000,10.797922119140624,9.610950469970703,-2.2290000915527344,1.0390501022338867
1728651087323527200,10.807527099609375,9.630000114440918,-2.2240500450134277,1.024049997329712
1728651087333132800,10.8171328125,9.52695083618164,-2.221950054168701,1.0290000438690186
1728651087342738000,10.826738037109376,9.379050254821777,-2.1760501861572266,1.0000500679016113
1728651087352343300,10.83634326171875,9.523050308227539,-2.200050115585327,0.9930000305175781
1728651087361948400,10.845948486328124,9.63705062866211,-2.2360501289367676,1.0080000162124634
1728651087371554000,10.855553955078125,9.598950386047363,-2.2699501514434814,1.015950083732605
1728651087381159200,10.8651591796875,9.49905014038086,-2.253000020980835,1.0410000085830688
1728651087390764500,10.8747646484375,9.433950424194336,-2.2270500659942627,1.048050045967102
1728651087400369700,10.88436962890625,9.415050506591797,-2.203050136566162,1.0600500106811523
1728651087409975300,10.893975341796875,9.424050331115723,-2.2099502086639404,1.1080501079559326
1728651087419580400,10.903580322265626,9.523050308227539,-2.205000162124634,1.1610000133514404
1728651087429185800,10.913185791015625,9.739950180053711,-2.2699501514434814,1.2090001106262207
1728651087438791000,10.922791015625,9.676050186157227,-2.3340001106262207,1.225950002670288
1728651087448396500,10.932396484375,9.352950096130371,-2.281949996948242,1.2160500288009644
1728651087458001700,10.942001708984375,9.324000358581543,-2.25,1.2469500303268433
1728651087467607000,10.95160693359375,9.357000350952148,-2.1760501861572266,1.2540000677108765
1728651087477212200,10.961212158203125,9.400050163269043,-2.245950222015381,1.3210500478744507
1728651087486817500,10.970817626953124,9.472050666809082,-2.290950059890747,1.336050033569336
1728651087496423000,10.9804228515625,9.340950012207031,-2.4160501956939697,1.3240500688552856
1728651087506028300,10.9900283203125,9.349950790405273,-2.464050054550171,1.2709500789642334
1728651087515633700,10.999633544921876,9.439050674438477,-2.431950092315674,1.2469500303268433
1728651087525238800,11.00923876953125,9.75,-2.45205020904541,1.2450000047683716
1728651087534844200,11.01884423828125,9.726000785827637,-2.539950132369995,1.2880500555038452
1728651087544449300,11.02844921875,9.529950141906738,-2.571000099182129,1.2880500555038452
1728651087554055000,11.038054931640625,9.57300090789795,-2.6290500164031982,1.2540000677108765
1728651087563660000,11.047659912109374,9.463050842285156,-2.638050079345703,1.165950059890747
1728651087573265400,11.057265380859375,9.199050903320312,-2.5309500694274902,1.065000057220459
1728651087582870500,11.06687060546875,9.361950874328613,-2.464050054550171,0.9910500645637512
1728651087592476200,11.07647607421875,9.472050666809082,-2.4250500202178955,1.0030500888824463
1728651087602081300,11.086081298828125,9.373950004577637,-2.370000123977661,1.0339500904083252
1728651087611686700,11.095686767578124,9.348000526428223,-2.329050064086914,1.1299500465393066
1728651087621291800,11.105291748046875,9.432000160217285,-2.284050226211548,1.1899501085281372
1728651087630897200,11.114897216796875,9.384000778198242,-2.2270500659942627,1.1749500036239624
1728651087640502500,11.12450244140625,9.565950393676758,-2.1790502071380615,1.2300000190734863
1728651087650108000,11.13410791015625,9.714000701904297,-2.2099502086639404,1.2109500169754028
1728651087659713000,11.143713134765624,9.628050804138184,-2.136000156402588,1.1730000972747803
1728651087669318400,11.153318359375,9.610950469970703,-2.11395001411438,1.0890001058578491
1728651087678923800,11.162923828125,9.714000701904297,-2.193000078201294,1.0390501022338867
1728651087688529000,11.17252880859375,9.582000732421875,-2.215050220489502,1.0110000371932983
1728651087698134500,11.182134521484375,9.373950004577637,-2.2240500450134277,0.9649500250816345
1728651087707739600,11.19173974609375,9.456000328063965,-2.200050115585327,0.9670500755310059
1728651087717345000,11.201344970703126,9.541950225830078,-2.2360501289367676,1.0320000648498535
1728651087726950100,11.2109501953125,9.694950103759766,-2.284050226211548,0.9910500645637512
1728651087736555800,11.2205556640625,9.831000328063965,-2.39205002784729,1.0390501022338867
1728651087746161000,11.230160888671875,9.585000038146973,-2.3869500160217285,1.0030500888824463
1728651087755766300,11.239766357421875,9.562950134277344,-2.305950164794922,0.9480000734329224
1728651087765371400,11.249371337890626,9.76200008392334,-2.2890000343322754,0.9120000600814819
1728651087774976800,11.258976806640625,9.658950805664062,-2.3010001182556152,0.8880000710487366
1728651087784582100,11.26858203125,9.457950592041016,-2.265000104904175,0.9070500135421753
1728651087794187300,11.278187255859375,9.490950584411621,-2.2290000915527344,0.9360000491142273
1728651087803792600,11.287792724609375,9.56100082397461,-2.205000162124634,0.9139500260353088
1728651087813398000,11.29739794921875,9.56100082397461,-2.1910500526428223,0.9600000381469727
1728651087823003400,11.30700341796875,9.757050514221191,-2.218950033187866,0.9960000514984131
1728651087832608800,11.31660888671875,9.903000831604004,-2.2290000915527344,1.0290000438690186
1728651087842214000,11.3262138671875,9.670950889587402,-2.221950054168701,1.0720500946044922
1728651087851819500,11.335819580078125,9.577950477600098,-2.218950033187866,1.0840500593185425
1728651087861424600,11.345424560546874,9.706950187683105,-2.1880500316619873,1.102950096130371
1728651087871030000,11.355030029296875,9.742950439453125,-2.2099502086639404,1.1730000972747803
1728651087880635100,11.36463525390625,9.490950584411621,-2.182950019836426,1.180050015449524
1728651087890240500,11.374240478515626,9.604050636291504,-2.1949501037597656,1.1820000410079956
1728651087899846000,11.383845947265625,9.745050430297852,-2.2390501499176025,1.1490000486373901
1728651087909451300,11.393451171875,9.661050796508789,-2.260050058364868,1.111050009727478
1728651087919056400,11.403056396484375,9.63705062866211,-2.2170000076293945,1.1149500608444214
1728651087928661800,11.412661865234375,9.658950805664062,-2.1760501861572266,1.1299500465393066
1728651087938267100,11.42226708984375,9.781050682067871,-2.2069501876831055,1.120050072669983
1728651087947872500,11.43187255859375,9.652050018310547,-2.1499500274658203,1.1680500507354736
1728651087957478000,11.441477783203124,9.669000625610352,-2.1640501022338867,1.1869500875473022
1728651087967083000,11.4510830078125,9.621000289916992,-2.203050136566162,1.1730000972747803
1728651087976688400,11.4606884765625,9.598950386047363,-2.2290000915527344,1.1269500255584717
1728651087986293500,11.47029345703125,9.52500057220459,-2.200050115585327,1.0770000219345093
1728651087995899000,11.47989892578125,9.457950592041016,-2.143050193786621,1.0770000219345093
1728651088005504300,11.489504150390625,9.47700023651123,-2.0880000591278076,1.102950096130371
1728651088015109600,11.499109619140626,9.621000289916992,-2.1280500888824463,1.1730000972747803
1728651088024715000,11.508715087890625,9.694950103759766,-2.182950019836426,1.2280501127243042
1728651088034320400,11.5183203125,9.721050262451172,-2.2789502143859863,1.237950086593628
1728651088043925500,11.527925537109375,9.616050720214844,-2.272050142288208,1.2280501127243042
1728651088053531000,11.53753076171875,9.681000709533691,-2.2740001678466797,1.1989500522613525
1728651088063136300,11.54713623046875,9.613950729370117,-2.2669501304626465,1.180050015449524
1728651088072741600,11.55674169921875,9.652050018310547,-2.260050058364868,1.1820000410079956
1728651088082346800,11.5663466796875,9.681000709533691,-2.245950222015381,1.1700000762939453
1728651088091952000,11.5759521484375,9.409950256347656,-2.2480502128601074,1.1749500036239624
1728651088101557500,11.5855576171875,9.076950073242188,-2.1259500980377197,1.1539500951766968
1728651088111163000,11.595162841796874,9.195000648498535,-2.073000192642212,1.1509500741958618
1728651088120768000,11.60476806640625,9.469950675964355,-2.1160500049591064,1.125
1728651088130373400,11.614373291015625,9.577950477600098,-2.1739501953125,1.120050072669983
1728651088139978800,11.623978759765626,9.606000900268555,-2.193000078201294,1.204050064086914
1728651088149584000,11.633583984375,9.693000793457031,-2.2480502128601074,1.2930001020431519
1728651088159189200,11.643189208984374,9.700050354003906,-2.1910500526428223,1.333050012588501
1728651088168794600,11.652794677734375,9.714000701904297,-2.1499500274658203,1.3380000591278076
1728651088178399700,11.662399658203125,9.333000183105469,-2.2069501876831055,1.1700000762939453
1728651088188005400,11.67200537109375,9.175050735473633,-2.1739501953125,1.0890001058578491
1728651088197610500,11.681610595703125,9.364950180053711,-2.170950174331665,1.0720500946044922
1728651088207215900,11.6912158203125,9.670950889587402,-2.2980000972747803,1.1470500230789185
1728651088216821200,11.7008212890625,9.874950408935547,-2.3869500160217285,1.2610501050949097
1728651088226426600,11.710426513671875,10.051950454711914,-2.4400501251220703,1.2930001020431519
1728651088236031700,11.72003173828125,10.012950897216797,-2.590050220489502,1.3450500965118408
1728651088245637000,11.72963720703125,9.535050392150879,-2.650050163269043,1.141950011253357
1728651088255242200,11.7392421875,9.490950584411621,-2.581050157546997,1.0290000438690186
1728651088264847600,11.74884765625,9.168000221252441,-2.40405011177063,0.7540500164031982
1728651088274453000,11.758452880859375,9.463050842285156,-2.272050142288208,0.7560000419616699
1728651088284058400,11.768058349609374,9.379050254821777,-2.2290000915527344,0.7900500297546387
1728651088293663700,11.777663818359375,9.822000503540039,-2.3179500102996826,1.0150500535964966
1728651088303269000,11.78726904296875,9.666000366210938,-2.3800501823425293,1.1560500860214233
1728651088312874200,11.796874267578126,9.717000007629395,-2.193000078201294,1.1869500875473022
1728651088322479600,11.806479736328125,10.255050659179688,-2.2669501304626465,1.1230500936508179
1728651088332084700,11.816084716796874,10.171050071716309,-2.55495023727417,1.1440500020980835
1728651088341690000,11.825690185546875,9.352950096130371,-2.4250500202178955,1.1680500507354736
1728651088351295500,11.83529541015625,9.26400089263916,-2.1090002059936523,1.0579500198364258
1728651088360900600,11.844900634765626,9.697050094604492,-2.0400002002716064,1.0030500888824463
1728651088370506200,11.85450634765625,9.987000465393066,-2.064000129699707,1.068000078201294
1728651088380111600,11.864111572265625,9.997050285339355,-2.1949501037597656,1.0770000219345093
1728651088389716700,11.873716796875,9.727950096130371,-2.272050142288208,1.0530000925064087
1728651088399322000,11.883322021484375,9.440999984741211,-2.2669501304626465,1.0270500183105469
1728651088408927500,11.892927490234374,9.156000137329102,-2.2980000972747803,0.9330000281333923
1728651088418532600,11.90253271484375,9.253950119018555,-2.25,0.9810000658035278
1728651088428138000,11.912137939453125,9.154050827026367,-2.182950019836426,1.0049999952316284
1728651088437743000,11.9217431640625,9.247050285339355,-2.1760501861572266,1.1230500936508179
1728651088447348700,11.9313486328125,9.931950569152832,-2.2789502143859863,1.2090001106262207
1728651088456953900,11.940953857421874,10.176000595092773,-2.491950035095215,1.264050006866455
1728651088466559200,11.950559326171875,9.682950019836426,-2.5309500694274902,1.2229501008987427
1728651088476164600,11.96016455078125,9.57300090789795,-2.4079501628875732,1.141950011253357
1728651088485769700,11.969769775390626,9.577950477600098,-2.260050058364868,1.0000500679016113
1728651088495375000,11.979375,9.277950286865234,-2.200050115585327,0.8880000710487366
1728651088504980500,11.98898046875,9.094050407409668,-2.111999988555908,0.9600000381469727
1728651088514585900,11.9985859375,9.058050155639648,-2.009999990463257,1.0960500240325928
1728651088524191000,12.00819091796875,9.352950096130371,-2.0590500831604004,1.221000075340271
1728651088533796400,12.01779638671875,9.54900074005127,-2.158950090408325,1.4269500970840454
1728651088543401700,12.027401611328125,9.384000778198242,-2.3560500144958496,1.4550000429153442
1728651088553007000,12.037007080078125,9.001049995422363,-2.242950201034546,1.50600004196167
1728651088562612200,12.0466123046875,9.013050079345703,-2.1450002193450928,1.3789501190185547
1728651088572217600,12.056217529296875,9.321000099182129,-2.1739501953125,1.2829500436782837
1728651088581823000,12.065822998046874,9.24000072479248,-2.0970001220703125,1.1869500875473022
1728651088591428400,12.075428466796875,9.333000183105469,-2.1739501953125,1.1850000619888306
1728651088601033700,12.08503369140625,9.51300048828125,-2.322000026702881,1.165950059890747
1728651088610638800,12.094638916015626,9.361950874328613,-2.382000207901001,1.1869500875473022
1728651088620244200,12.104244140625,9.268950462341309,-2.3389501571655273,1.1820000410079956
1728651088629849600,12.113849609375,9.166050910949707,-2.242950201034546,1.1490000486373901
1728651088639454700,12.123454833984376,9.20205020904541,-2.1280500888824463,1.1179500818252563
1728651088649060000,12.13306005859375,9.244950294494629,-2.180999994277954,1.1779500246047974
1728651088658665500,12.14266552734375,9.172950744628906,-2.25,1.2229501008987427
1728651088668270800,12.152270751953125,9.331050872802734,-2.253000020980835,1.3090500831604004
1728651088677876000,12.1618759765625,9.445950508117676,-2.3149502277374268,1.3189500570297241
1728651088687481600,12.171481689453126,9.444000244140625,-2.3389501571655273,1.2930001020431519
1728651088697086700,12.181086669921875,9.424050331115723,-2.281949996948242,1.218000054359436
1728651088706692000,12.190692138671874,9.379050254821777,-2.170950174331665,1.1749500036239624
1728651088716297200,12.200297119140625,9.448050498962402,-2.133000135421753,1.1490000486373901
1728651088725902800,12.20990283203125,9.541950225830078,-2.212050199508667,1.1700000762939453
1728651088735508000,12.219508056640626,9.466950416564941,-2.2770001888275146,1.1899501085281372
1728651088745113300,12.22911328125,9.415050506591797,-2.284050226211548,1.1850000619888306
1728651088754718500,12.238718505859374,9.45300006866455,-2.265000104904175,1.1509500741958618
1728651088764324000,12.248323974609375,9.613950729370117,-2.215050220489502,1.125
1728651088773929200,12.25792919921875,9.754950523376465,-2.2390501499176025,1.0990500450134277
1728651088783534800,12.267534912109374,9.634950637817383,-2.203050136566162,1.1130000352859497
1728651088793140000,12.277139892578125,9.5110502243042,-2.1949501037597656,1.1059499979019165
1728651088802745300,12.286745361328125,9.601950645446777,-2.25,1.1299500465393066
1728651088812350500,12.2963505859375,9.819000244140625,-2.25,1.1560500860214233
1728651088821956000,12.3059560546875,10.159050941467285,-2.382000207901001,1.1700000762939453
1728651088831561200,12.315561279296874,10.131000518798828,-2.45205020904541,1.194000005722046
1728651088841166600,12.32516650390625,9.666000366210938,-2.212050199508667,1.1509500741958618
1728651088850771700,12.334771728515625,9.585000038146973,-2.0299501419067383,0.9930000305175781
1728651088860377300,12.34437744140625,10.068000793457031,-2.009999990463257,1.015950083732605
1728651088869982500,12.353982421875,10.693050384521484,-2.302950143814087,1.165950059890747
1728651088879587800,12.363587890625,10.485000610351562,-2.5230000019073486,1.2850500345230103
1728651088889193200,12.373193115234375,9.53895092010498,-2.3080501556396484,1.1779500246047974
1728651088898798300,12.38279833984375,9.319050788879395,-1.9200000762939453,0.9910500645637512
1728651088908403700,12.39240380859375,10.36500072479248,-1.9890000820159912,1.0030500888824463
1728651088918009000,12.402009033203125,10.959000587463379,-2.26200008392334,1.1539500951766968
1728651088927614500,12.411614501953125,10.272000312805176,-2.373000144958496,1.1490000486373901
1728651088937219600,12.421219482421876,9.529950141906738,-2.313000202178955,0.9360000491142273
1728651088946825000,12.430824951171875,9.889050483703613,-2.305950164794922,0.8160000443458557
1728651088956430300,12.440430419921874,10.81095027923584,-2.385000228881836,0.8880000710487366
1728651088966035700,12.45003564453125,10.854000091552734,-2.3530499935150146,0.9739500284194946
1728651088975641000,12.45964111328125,9.77595043182373,-2.3770501613616943,0.895050048828125
1728651088985246200,12.46924609375,9.094050407409668,-2.0490000247955322,0.8110500574111938
